File: scripts/old_scripts/data/ascii/I20180835_231_CV_XRD.dat
# I20180835 #231 CV with XRD
# Potential / V, Current Density / mA/cm^2, Strain ip / %, Strain oop / %, d ip / nm, d oop / nm, Intensity (area ip)
0.686328 -0.0273438 -0.126345 0.360643 19.3856 14.5837 0.0105014
0.684453 -0.0280469 -0.121584 0.355919 19.4152 14.5258 0.0102118
0.695937 -0.0310156 -0.121909 0.364446 19.4421 14.5784 0.0105155
0.699297 -0.0308594 -0.119151 0.354543 19.2855 14.5665 0.0101911
0.704609 -0.0311719 -0.118715 0.356989 19.3131 14.5184 0.0103537
0.718438 -0.0313281 -0.117895 0.354083 19.3178 14.6622 0.0106462
0.722344 -0.0296875 -0.119776 0.356774 19.3395 14.5846 0.0104162
0.725 -0.0321094 -0.115896 0.350509 19.2003 14.5309 0.0101984
0.749375 -0.0330469 -0.115907 0.350984 19.4047 14.5623 0.0103225
0.744844 -0.0314844 -0.118007 0.344967 19.3402 14.4579 0.0101664
0.761953 -0.0335937 -0.116704 0.342922 19.3301 14.531 0.0103219
0.764375 -0.0313281 -0.117055 0.348703 19.381 14.5548 0.0102378
0.777734 -0.0335156 -0.11795 0.34138 19.4099 14.5393 0.0104598
0.779687 -0.033125 -0.119479 0.340667 19.3905 14.5236 0.0103938
0.794063 -0.0333594 -0.116731 0.337162 19.2967 14.48 0.0102852
0.802188 -0.0367969 -0.118212 0.327088 19.3714 14.5861 0.0101235
0.805391 -0.0369531 -0.114002 0.327421 19.3559 14.5078 0.0102162
0.817266 -0.035625 -0.112052 0.329383 19.3244 14.5846 0.0101277
0.826484 -0.038125 -0.112326 0.328868 19.2284 14.5453 0.00967353
0.835078 -0.0392969 -0.107789 0.319066 19.3156 14.5847 0.00961055
0.838203 -0.0376563 -0.106426 0.31338 19.1524 14.4679 0.00919857
0.856328 -0.0378125 -0.103512 0.305335 19.2475 14.5961 0.00883917
0.859375 -0.0384375 -0.0995484 0.310225 19.2859 14.4602 0.00822584
0.866563 -0.0389063 -0.106144 0.303209 19.2627 14.4891 0.00776345
0.877266 -0.039375 -0.105317 0.305365 19.0526 14.4528 0.00757271
0.886484 -0.0372656 -0.104029 0.298801 19.3504 14.4364 0.00725496
0.890781 -0.039375 -0.107185 0.297631 19.305 14.4142 0.006858
0.894453 -0.0392188 -0.106471 0.293652 19.1682 14.5767 0.00710507
0.908984 -0.0425781 -0.109007 0.293807 19.0384 14.3835 0.00705161
0.918203 -0.0432813 -0.107326 0.287789 19.0145 14.4151 0.00713225
0.920078 -0.0432031 -0.105982 0.285513 19.1934 14.3786 0.00776964
0.938281 -0.0492187 -0.113076 0.286075 19.1088 14.4269 0.00825975
0.939922 -0.0500781 -0.110019 0.285207 19.2103 14.495 0.00842294
0.948203 -0.0555469 -0.11468 0.284913 19.1776 14.418 0.00913079
0.954922 -0.0589063 -0.118349 0.28742 19.3472 14.4243 0.00950321
0.965391 -0.0655469 -0.123975 0.286945 19.2759 14.4639 0.00987551
0.971719 -0.0703906 -0.131735 0.286332 19.1769 14.5067 0.0100193
0.97625 -0.07625 -0.135503 0.285304 19.1651 14.4295 0.0100172
0.987891 -0.0875 -0.13867 0.276884 19.1324 14.3905 0.0101553
1.00109 -0.0975 -0.143175 0.275003 19.0603 14.4426 0.0101379
1.01 -0.108828 -0.147931 0.273872 19.161 14.359 0.0103582
1.01719 -0.122891 -0.149953 0.277912 19.1615 14.3321 0.0103392
1.03 -0.137266 -0.151126 0.271821 19.1402 14.4422 0.0105028
1.02922 -0.15125 -0.156115 0.271021 19.1764 14.4371 0.0103579
1.03742 -0.173359 -0.156691 0.27163 19.1579 14.3614 0.0104327
1.05273 -0.191562 -0.156436 0.267027 19.027 14.3273 0.0103983
1.06164 -0.213516 -0.159996 0.266451 19.0837 14.2774 0.0103897
1.06266 -0.233281 -0.158884 0.271385 19.1388 14.2678 0.0102808
1.06469 -0.258984 -0.160395 0.272119 19.0825 14.3761 0.0101683
1.08391 -0.282656 -0.159848 0.25833 19.1318 14.3418 0.0103671
1.08922 -0.306797 -0.160628 0.272959 19.037 14.3089 0.0102453
1.105 -0.331016 -0.159458 0.264285 19.0634 14.3859 0.0102073
1.10617 -0.355781 -0.156298 0.266884 19.2234 14.4079 0.0100407
1.11531 -0.385937 -0.16024 0.271133 19.125 14.2625 0.0102404
1.12312 -0.415547 -0.159226 0.266588 19.1508 14.2934 0.0103258
1.13594 -0.441719 -0.158041 0.264893 19.0069 14.3302 0.0101842
1.14086 -0.468125 -0.156588 0.262387 19.0902 14.2801 0.010172
1.15305 -0.497109 -0.157418 0.267277 19.1512 14.3808 0.010035
1.16039 -0.528906 -0.158123 0.269545 19.0427 14.3102 0.0101926
1.14914 -0.460391 -0.157876 0.268263 19.0302 14.3412 0.00997241
1.14633 -0.403516 -0.156435 0.266169 19.072 14.2882 0.00999351
1.13609 -0.361484 -0.157936 0.265555 19.1643 14.2941 0.00985555
1.12633 -0.319297 -0.153539 0.270791 19.016 14.3117 0.00992443
1.11977 -0.278594 -0.154767 0.270976 19.1206 14.2863 0.00997251
1.10727 -0.245078 -0.152121 0.259828 19.0678 14.2385 0.00989751
1.09773 -0.216094 -0.15584 0.269403 19.1882 14.3697 0.00994242
1.09719 -0.193359 -0.154621 0.266328 19.1143 14.3926 0.00993336
1.08703 -0.170859 -0.155033 0.265486 18.9766 14.3597 0.00986622
1.07469 -0.148047 -0.154553 0.270905 19.0427 14.3905 0.00980579
1.06961 -0.13125 -0.154449 0.268453 19.1407 14.3974 0.00995228
1.0525 -0.116406 -0.154743 0.266572 19.0496 14.3157 0.00999025
1.05102 -0.101719 -0.155381 0.263234 19.1445 14.3622 0.00978449
1.04508 -0.0903125 -0.152566 0.267156 19.1659 14.4898 0.0100716
1.03156 -0.0821875 -0.155622 0.266932 19.0633 14.3559 0.0100195
1.02641 -0.0732813 -0.157311 0.26427 19.1405 14.4005 0.00992168
1.01719 -0.0658594 -0.153672 0.266653 19.1627 14.3593 0.00993247
1.01727 -0.0609375 -0.152468 0.268687 19.0901 14.2847 0.0100922
0.986953 -0.0539063 -0.155063 0.268714 19.1769 14.336 0.0100051
0.991406 -0.0522656 -0.15573 0.2711 19.1335 14.3106 0.00999524
0.983984 -0.0492969 -0.155792 0.265634 19.2141 14.3464 0.0101996
0.978203 -0.0459375 -0.154445 0.266813 19.1774 14.3559 0.00988861
0.965078 -0.0432813 -0.153743 0.270749 19.096 14.3128 0.0101903
0.957578 -0.0419531 -0.155617 0.27555 19.1954 14.4068 0.0102102
0.956094 -0.0382813 -0.155525 0.270576 19.198 14.4547 0.00992651
0.937578 -0.0390625 -0.155104 0.274931 19.1331 14.4761 0.0101971
0.937656 -0.0364063 -0.155497 0.274303 19.0665 14.2949 0.0101269
0.925469 -0.0365625 -0.156676 0.270021 19.0981 14.4125 0.0100849
0.922891 -0.0350781 -0.154879 0.274353 19.0938 14.3614 0.0101075
0.910938 -0.0357813 -0.154314 0.272155 19.1855 14.487 0.010114
0.899844 -0.0347656 -0.154122 0.27635 19.0844 14.3741 0.0103194
0.89875 -0.0334375 -0.156766 0.279805 19.1791 14.4624 0.01029
0.882344 -0.0313281 -0.154324 0.280331 19.1347 14.4709 0.0101596
0.882812 -0.0332031 -0.153979 0.276991 19.1924 14.4829 0.0099936
0.870703 -0.0311719 -0.1549 0.285245 19.2286 14.4843 0.010331
0.867734 -0.0323437 -0.15488 0.280739 19.2665 14.3565 0.0102834
0.851484 -0.0314844 -0.155237 0.287384 19.2351 14.3983 0.010313
0.843594 -0.03 -0.152923 0.285568 19.2527 14.5012 0.0104026
0.836094 -0.0314063 -0.152855 0.287895 19.1462 14.3562 0.0100695
0.825391 -0.030625 -0.153412 0.291999 19.2452 14.4443 0.0103522
0.822109 -0.0311719 -0.157258 0.292934 19.0921 14.373 0.010246
0.806016 -0.0269531 -0.155703 0.293263 19.2778 14.4862 0.0104494
0.797734 -0.0292969 -0.158135 0.294726 19.0917 14.4304 0.0104575
0.790312 -0.0265625 -0.156773 0.301951 19.3036 14.4735 0.0103696
0.788828 -0.0302344 -0.156213 0.298334 19.1408 14.4084 0.0104375
0.777734 -0.0286719 -0.155842 0.301693 19.1482 14.4124 0.010533
0.768047 -0.0297656 -0.156739 0.309553 19.1075 14.3851 0.0105399
0.756172 -0.0292969 -0.158253 0.308027 19.193 14.4437 0.0106157
0.751797 -0.0278906 -0.15554 0.310688 19.1708 14.4424 0.0105089
0.754297 -0.0275 -0.156572 0.312062 19.2101 14.4702 0.010435
0.733359 -0.0295313 -0.157723 0.313689 19.2182 14.3811 0.0105796
0.728047 -0.0274219 -0.154392 0.318975 19.3188 14.3936 0.0103664
0.727344 -0.029375 -0.154791 0.321402 19.2535 14.463 0.0105949
0.713984 -0.02875 -0.155412 0.319595 19.2554 14.4822 0.0104425
0.709844 -0.0269531 -0.152769 0.317558 19.2185 14.3874 0.0103438
0.6925 -0.0290625 -0.15301 0.330983 19.3365 14.5123 0.0104772
0.683047 -0.026875 -0.150064 0.330536 19.3043 14.4955 0.0106422
0.677813 -0.0264062 -0.15211 0.330709 19.2266 14.4348 0.0105556
0.671563 -0.0275781 -0.151536 0.334946 19.307 14.5321 0.0105532
0.663281 -0.0261719 -0.152384 0.341714 19.3381 14.5841 0.0104633
0.650469 -0.0248438 -0.148956 0.333925 19.2284 14.4243 0.0104574
0.653047 -0.0278125 -0.149438 0.338469 19.3946 14.6014 0.0106407
0.631641 -0.0269531 -0.146112 0.340678 19.3085 14.5542 0.0103998
0.630078 -0.0263281 -0.149308 0.342955 19.3299 14.4865 0.0105685
0.621328 -0.0261719 -0.146364 0.350884 19.2812 14.4495 0.0106929
0.617891 -0.024375 -0.149277 0.348215 19.3739 14.5531 0.0106306
0.604609 -0.0261719 -0.147399 0.357068 19.3445 14.5749 0.0106732
0.599531 -0.0258594 -0.148376 0.362904 19.4012 14.6252 0.010758
0.587031 -0.0252344 -0.144665 0.362204 19.2499 14.5826 0.0107204
0.573125 -0.024375 -0.143515 0.361828 19.3461 14.5866 0.0107027
0.573906 -0.0232031 -0.144018 0.370098 19.4297 14.5876 0.0106234
0.568281 -0.0246094 -0.140469 0.370104 19.273 14.5957 0.0106301
0.547734 -0.0253125 -0.137621 0.364277 19.2522 14.59 0.0107102
0.543672 -0.0225781 -0.140257 0.371284 19.3974 14.6312 0.0106537
0.531563 -0.0250781 -0.138579 0.381238 19.3235 14.6604 0.0108096
0.534062 -0.0254688 -0.140994 0.380021 19.2988 14.668 0.0106404
0.519062 -0.025625 -0.1388 0.379086 19.3511 14.6156 0.0109888
0.510469 -0.0242188 -0.139629 0.392637 19.3658 14.7282 0.0110185
0.499063 -0.0229687 -0.137343 0.387097 19.4077 14.5889 0.0110281
0.490156 -0.0239063 -0.138638 0.393775 19.3583 14.6236 0.010779
0.481016 -0.0240625 -0.136787 0.396221 19.5501 14.713 0.010981
0.485 -0.023125 -0.139194 0.404181 19.4752 14.7383 0.0110585
0.471562 -0.0219531 -0.135487 0.405787 19.3923 14.7475 0.0107376
0.462969 -0.0236719 -0.134437 0.408345 19.405 14.6876 0.0108751
0.457969 -0.0210938 -0.131401 0.413221 19.302 14.7016 0.0110328
0.454297 -0.0225 -0.12986 0.409963 19.3378 14.7578 0.0109041
0.434688 -0.0219531 -0.130401 0.416684 19.3614 14.7443 0.0109101
0.427734 -0.02375 -0.12834 0.421602 19.4501 14.7214 0.0109608
0.417656 -0.0219531 -0.129551 0.430657 19.4306 14.7579 0.0110547
0.419297 -0.021875 -0.13284 0.43314 19.2897 14.6916 0.0110132
0.401719 -0.0228906 -0.130657 0.441709 19.3177 14.7414 0.0109587
0.399766 -0.02 -0.131225 0.441146 19.3147 14.8331 0.0108611
0.388437 -0.0203125 -0.127773 0.44438 19.4719 14.8153 0.0110947
0.375234 -0.0217969 -0.126662 0.442467 19.4201 14.8774 0.0109952
0.370938 -0.0215625 -0.126911 0.45002 19.4607 14.8596 0.0109734
0.364844 -0.021875 -0.125725 0.454324 19.4392 14.872 0.0111747
0.349687 -0.020625 -0.124301 0.451965 19.3389 14.7774 0.0110649
0.349687 -0.0220312 -0.123916 0.462039 19.299 14.8432 0.0113709
0.341172 -0.0209375 -0.122628 0.468816 19.4398 14.8785 0.0110502
0.343203 -0.0233594 -0.120268 0.469156 19.5379 14.8696 0.0110768
0.348672 -0.0238281 -0.12187 0.470909 19.3716 14.8502 0.0109907
0.360547 -0.0251563 -0.11918 0.461988 19.4346 14.9344 0.0110459
0.376172 -0.0246875 -0.119537 0.46621 19.3561 14.9151 0.0110652
0.376797 -0.0257813 -0.117855 0.467933 19.4393 14.9149 0.0109659
0.389609 -0.0245313 -0.117762 0.466292 19.4723 14.8587 0.0111895
0.385234 -0.0240625 -0.117281 0.463432 19.3839 14.847 0.011101
0.397969 -0.025625 -0.120003 0.461283 19.398 14.8397 0.0111199
0.412656 -0.0257813 -0.120346 0.465411 19.4261 14.8898 0.0111523
0.423125 -0.0263281 -0.119789 0.45882 19.427 14.8117 0.0109742
0.429141 -0.0275 -0.118787 0.454641 19.3771 14.8664 0.0110696
0.442969 -0.0271094 -0.120705 0.45536 19.398 14.8777 0.0112834
0.441484 -0.02625 -0.120215 0.451207 19.3674 14.7415 0.0110488
0.449922 -0.0257031 -0.119972 0.449812 19.4278 14.7664 0.0111472
0.457031 -0.0280469 -0.120256 0.450455 19.4681 14.8678 0.0109881
0.467422 -0.0284375 -0.117503 0.443753 19.4506 14.8711 0.0112658
0.477031 -0.0267187 -0.120467 0.439539 19.4806 14.784 0.0111704
0.487344 -0.0274219 -0.121958 0.437987 19.3895 14.8401 0.0112233
0.498984 -0.0283594 -0.121014 0.433721 19.4553 14.8235 0.0111507
0.505859 -0.0269531 -0.121632 0.43726 19.4843 14.7586 0.0111528
0.510234 -0.0282813 -0.123155 0.432233 19.3863 14.8346 0.0111084
0.518047 -0.0288281 -0.122026 0.432928 19.337 14.7627 0.0112646
0.522344 -0.0292188 -0.120269 0.427151 19.4683 14.7425 0.0110985
0.537109 -0.0292188 -0.122606 0.423656 19.4256 14.7732 0.0109037
0.536328 -0.0280469 -0.122183 0.423603 19.4846 14.8204 0.0109922
0.554141 -0.0291406 -0.123771 0.4219 19.3077 14.6913 0.0111949
0.560078 -0.0299219 -0.123814 0.41547 19.4113 14.6872 0.0111247
0.569922 -0.0291406 -0.118556 0.415421 19.416 14.749 0.0112975
0.573672 -0.0289063 -0.121406 0.408562 19.5107 14.7426 0.0111906
0.585078 -0.0307812 -0.121012 0.405229 19.4958 14.7468 0.0112048
0.592578 -0.0299219 -0.123026 0.410073 19.4703 14.7659 0.011194
0.606406 -0.0310937 -0.123237 0.401596 19.496 14.6969 0.0111895
0.610938 -0.030625 -0.123507 0.396367 19.4153 14.7263 0.0110908
0.619688 -0.03125 -0.124898 0.3963 19.4236 14.663 0.0109306
0.628125 -0.0299219 -0.123816 0.394275 19.4729 14.723 0.0109805
0.631719 -0.0316406 -0.1255 0.390398 19.4502 14.7818 0.0111139
0.644375 -0.0311719 -0.123097 0.389096 19.4767 14.6131 0.0111913
0.657266 -0.0311719 -0.122458 0.387516 19.4761 14.7143 0.0112247
0.652813 -0.0314063 -0.122738 0.381035 19.3401 14.6322 0.011194
0.667578 -0.0301562 -0.123989 0.380799 19.4386 14.6763 0.0111449
0.6825 -0.0333594 -0.124013 0.376817 19.4382 14.6503 0.0110162
0.687109 -0.0328906 -0.125235 0.372031 19.4481 14.6555 0.010839
0.692734 -0.0319531 -0.125293 0.374446 19.4431 14.6986 0.0113154
0.698828 -0.0333594 -0.127199 0.376423 19.4379 14.5907 0.0110823
0.702578 -0.0328125 -0.127097 0.366901 19.3538 14.6289 0.0109203
0.716328 -0.0342187 -0.128563 0.361272 19.4201 14.5413 0.0109187
0.726328 -0.0332812 -0.124691 0.355749 19.3348 14.5932 0.0110101
0.737266 -0.0322656 -0.125331 0.35967 19.3686 14.613 0.0111291
0.738359 -0.0335156 -0.129205 0.354546 19.4085 14.588 0.0109638
0.751328 -0.034375 -0.127437 0.349837 19.4014 14.5519 0.0106347
0.755938 -0.0358594 -0.127925 0.349315 19.2922 14.5155 0.0109823
0.769531 -0.0359375 -0.128894 0.34356 19.4078 14.6418 0.010801
0.775938 -0.0360938 -0.128214 0.34002 19.298 14.5239 0.0109715
0.793516 -0.036875 -0.129275 0.339057 19.435 14.5393 0.0111353
0.786328 -0.0360938 -0.131066 0.334791 19.2663 14.5314 0.0110491
0.793672 -0.0385938 -0.132505 0.337461 19.2441 14.5567 0.0108631
0.805937 -0.03625 -0.130462 0.327348 19.301 14.4825 0.0110421
0.816172 -0.0394531 -0.131812 0.32924 19.2709 14.4709 0.010872
0.819688 -0.0383594 -0.132832 0.320776 19.3893 14.5959 0.0109844
0.835938 -0.0364063 -0.133274 0.319282 19.2366 14.4955 0.0108426
0.839688 -0.0390625 -0.133853 0.313193 19.2805 14.5516 0.0109809
0.843828 -0.0363281 -0.132278 0.320114 19.2248 14.4552 0.0107311
0.857812 -0.0400781 -0.135555 0.313918 19.3172 14.5359 0.0107781
0.864063 -0.0390625 -0.132871 0.31053 19.2594 14.4955 0.0106566
0.867969 -0.03875 -0.135712 0.302962 19.2675 14.4943 0.0109344
0.883125 -0.0380469 -0.135966 0.300404 19.3325 14.5044 0.0107884
0.891563 -0.0392188 -0.13842 0.303049 19.2902 14.4697 0.0106565
0.895781 -0.0416406 -0.138751 0.296018 19.2906 14.3426 0.0106983
0.907422 -0.0429688 -0.136714 0.290877 19.2045 14.4556 0.0107522
0.914609 -0.0433594 -0.13698 0.293417 19.1987 14.4083 0.0106641
0.925234 -0.0469531 -0.141491 0.290898 19.2832 14.4329 0.0104096
0.928438 -0.0480469 -0.143638 0.294417 19.2266 14.5153 0.0105623
0.936406 -0.0500781 -0.143798 0.28585 19.2365 14.4331 0.0104471
0.946484 -0.0542969 -0.143145 0.286083 19.2197 14.402 0.0105463
0.954141 -0.0575 -0.144611 0.284944 19.1896 14.421 0.0104379
0.964297 -0.0657031 -0.143294 0.275728 19.3104 14.4711 0.0105017
0.970234 -0.069375 -0.144383 0.283562 19.1527 14.413 0.0104678
0.9725 -0.0786719 -0.147297 0.281385 19.2169 14.4877 0.0103164
0.992656 -0.0874219 -0.143834 0.279641 19.1052 14.3535 0.0104131
0.995078 -0.0982031 -0.146178 0.276027 19.1655 14.4354 0.0104163
1.00594 -0.107969 -0.148925 0.277128 19.1302 14.4429 0.0103653
1.01328 -0.120469 -0.148406 0.276355 19.1705 14.398 0.0101996
1.01945 -0.133906 -0.150891 0.275505 19.1483 14.3109 0.0103864
1.03047 -0.150391 -0.152201 0.275233 19.1405 14.3647 0.0103432
1.03937 -0.166328 -0.152453 0.271968 19.2625 14.4222 0.0105481
1.04477 -0.185078 -0.15286 0.27444 19.1208 14.41 0.0104429
1.0518 -0.206484 -0.15415 0.268887 19.0427 14.3031 0.0102662
1.06094 -0.226484 -0.15412 0.267153 19.1259 14.3255 0.0101635
1.07469 -0.248984 -0.152446 0.275465 19.2105 14.3245 0.0102905
1.08234 -0.267734 -0.15661 0.271386 19.1842 14.3467 0.010234
1.09094 -0.293359 -0.156187 0.26882 19.1621 14.3003 0.0100653
1.09203 -0.320234 -0.157498 0.270301 19.0496 14.3576 0.0102903
1.10406 -0.346875 -0.154885 0.267477 19.1997 14.4038 0.0102459
1.11578 -0.373906 -0.157407 0.265581 19.1158 14.3355 0.0101566
1.1193 -0.402031 -0.15738 0.262486 19.0364 14.3523 0.0103135
1.13594 -0.428281 -0.157855 0.263872 19.2061 14.3025 0.00996339
1.13352 -0.457813 -0.159067 0.265039 19.1221 14.3088 0.0104127
1.14742 -0.485938 -0.160492 0.267749 19.1558 14.2859 0.010135
1.15828 -0.514141 -0.160032 0.270843 19.0484 14.2529 0.0101909
1.15273 -0.487031 -0.160956 0.268083 19.0321 14.2601 0.0101752
1.14352 -0.422891 -0.162225 0.265069 19.0374 14.2433 0.010025
1.13555 -0.371953 -0.161859 0.258162 19.0734 14.3229 0.0101493
1.12953 -0.330547 -0.163045 0.262569 19.1472 14.3746 0.0102347
1.12398 -0.291797 -0.162393 0.263431 19.0483 14.331 0.0104347
1.10805 -0.259219 -0.16381 0.264265 19.078 14.2951 0.0101492
1.10695 -0.227656 -0.16526 0.258501 19.1948 14.2549 0.0102403
1.09609 -0.198125 -0.162468 0.263536 19.0795 14.3033 0.0102931
1.0925 -0.175391 -0.162909 0.263748 19.1236 14.2689 0.0103562
1.0807 -0.153828 -0.162142 0.256426 19.0801 14.2437 0.0101348
1.06914 -0.139453 -0.166285 0.257649 18.9945 14.276 0.0103877
1.04953 -0.120547 -0.162679 0.259872 19.0614 14.2927 0.0101896
1.05273 -0.109688 -0.163518 0.263007 19.134 14.3436 0.0102241
1.04937 -0.0982031 -0.165333 0.25553 19.1127 14.375 0.0103701
1.05133 -0.0877344 -0.165993 0.260104 19.1029 14.3 0.0103976
1.02781 -0.0778125 -0.163282 0.26289 19.1027 14.2193 0.0101086
1.02125 -0.0696094 -0.161714 0.268296 19.0898 14.2792 0.010264
1.01773 -0.0617969 -0.163013 0.269881 19.0841 14.3278 0.0101903
1.00977 -0.0576562 -0.161345 0.262221 19.1491 14.307 0.0103197
1.00375 -0.0553125 -0.16346 0.262421 19.1458 14.3641 0.0103529
0.984688 -0.0505469 -0.162358 0.262409 19.0947 14.3984 0.0103229
0.987578 -0.0482031 -0.16229 0.266898 19.1186 14.3237 0.0103882
0.969141 -0.04625 -0.163233 0.263821 19.0197 14.3244 0.0103407
0.957266 -0.0428125 -0.162612 0.269409 19.0287 14.362 0.0103577
0.957578 -0.0399219 -0.160109 0.261981 19.0304 14.2666 0.0103245
0.950625 -0.0367188 -0.160861 0.266875 19.1159 14.3204 0.0102659
0.942031 -0.0378125 -0.159103 0.269662 19.1127 14.3255 0.0103011
0.931641 -0.0369531 -0.161099 0.270143 19.0561 14.3965 0.0102274
0.926016 -0.0345312 -0.162099 0.270382 19.1361 14.4139 0.0101599
0.91625 -0.0350781 -0.163206 0.268886 19.1746 14.4435 0.0104705
0.907422 -0.0350781 -0.161115 0.273319 19.137 14.3665 0.0103537
0.903281 -0.0338281 -0.159583 0.274366 19.0912 14.2757 0.010249
0.888281 -0.0314844 -0.162437 0.269398 19.0436 14.4169 0.0103503
0.880938 -0.0333594 -0.159967 0.277172 19.2317 14.4228 0.0105306
0.870469 -0.0325781 -0.159605 0.270976 19.2434 14.3521 0.0105272
0.877891 -0.0317188 -0.160519 0.282854 19.1636 14.3541 0.0104138
0.855781 -0.0309375 -0.159088 0.274018 19.2065 14.4107 0.010399
0.850156 -0.0307812 -0.159717 0.278102 19.1292 14.442 0.0104104
0.838672 -0.0296094 -0.160292 0.28077 19.2893 14.4247 0.01064
0.835938 -0.0295313 -0.162825 0.281169 19.1755 14.4264 0.0105531
0.820156 -0.0296094 -0.159873 0.281268 19.0997 14.4312 0.0106156
0.813594 -0.0288281 -0.160741 0.289659 19.2551 14.3704 0.0105807
0.809844 -0.030625 -0.159079 0.288119 19.2016 14.3869 0.0104528
0.8 -0.0263281 -0.160007 0.28532 19.2085 14.4477 0.0104499
0.796484 -0.0298438 -0.161269 0.293655 19.2481 14.4326 0.0107021
0.793281 -0.0289844 -0.159853 0.294769 19.1297 14.4248 0.0105135
0.772344 -0.0299219 -0.159005 0.293779 19.1536 14.4303 0.0107471
0.766406 -0.026875 -0.159075 0.29311 19.1796 14.4304 0.0107273
0.761484 -0.0275 -0.159777 0.299601 19.0851 14.4541 0.0107574
0.754453 -0.0296094 -0.161797 0.304252 19.2266 14.4544 0.010791
0.748359 -0.0286719 -0.162825 0.308667 19.2084 14.476 0.0106043
0.735078 -0.0286719 -0.162335 0.308279 19.1509 14.4569 0.0106633
0.731406 -0.0264062 -0.161522 0.310875 19.2921 14.4051 0.0106282
0.718125 -0.0278125 -0.160922 0.311964 19.2184 14.3773 0.0106506
0.705781 -0.0282813 -0.158053 0.317154 19.2512 14.4558 0.0107984
0.707109 -0.028125 -0.161192 0.318837 19.1723 14.3862 0.0107106
0.695078 -0.0271875 -0.159936 0.318603 19.2888 14.4302 0.0108024
0.6825 -0.0257813 -0.159988 0.319692 19.2908 14.5248 0.0107607
0.678359 -0.0278906 -0.158981 0.325321 19.2208 14.4898 0.0107279
0.667031 -0.0276563 -0.157184 0.32656 19.2193 14.4904 0.0108487
0.665703 -0.0271094 -0.156817 0.332774 19.2877 14.5842 0.0107923
0.649453 -0.0257813 -0.154597 0.33153 19.2686 14.4608 0.0108446
0.645391 -0.0275 -0.156217 0.333294 19.3954 14.521 0.0108481
0.638906 -0.0255469 -0.155089 0.335179 19.2453 14.487 0.0109259
0.631719 -0.0261719 -0.155295 0.338583 19.3031 14.5484 0.010737
0.619453 -0.0267187 -0.154057 0.340632 19.3204 14.4682 0.010821
0.611016 -0.0264062 -0.154689 0.341155 19.3404 14.4952 0.0108919
0.605938 -0.0257031 -0.152019 0.340978 19.2978 14.5961 0.0109327
0.602812 -0.0260937 -0.151503 0.34691 19.3724 14.5813 0.0108606
0.582187 -0.0242969 -0.150281 0.352234 19.2957 14.523 0.0112603
0.585547 -0.0248438 -0.153424 0.352975 19.3676 14.5381 0.0111925
0.57625 -0.0242969 -0.153064 0.357528 19.3336 14.5588 0.0110874
0.561797 -0.0260937 -0.151221 0.357994 19.3255 14.612 0.0109524
0.554453 -0.0232812 -0.153141 0.357931 19.3548 14.58 0.0111048
0.541016 -0.0257813 -0.15253 0.365011 19.3922 14.6991 0.0110562
0.540234 -0.024375 -0.148527 0.369745 19.3274 14.6398 0.0111675
0.535 -0.0239844 -0.149042 0.365914 19.3769 14.6531 0.0111644
0.527891 -0.0239844 -0.150246 0.374619 19.2869 14.5742 0.0112903
0.514844 -0.0247656 -0.149076 0.379179 19.3314 14.7079 0.0110568
0.508047 -0.0242188 -0.146607 0.387138 19.3839 14.668 0.0113118
0.497031 -0.0246875 -0.146591 0.384382 19.3676 14.6756 0.0110803
0.483047 -0.0246094 -0.143257 0.387934 19.4067 14.6261 0.0112467
0.488828 -0.0245313 -0.143692 0.391745 19.3224 14.6749 0.0110989
0.475 -0.0221875 -0.142682 0.395381 19.4291 14.7546 0.0111399
0.467188 -0.0217969 -0.140386 0.398165 19.4451 14.7057 0.0111266
0.458828 -0.0233594 -0.140122 0.404758 19.398 14.7473 0.0112002
0.451953 -0.0225 -0.140915 0.405534 19.3967 14.6793 0.0111772
0.439219 -0.0229687 -0.139203 0.408473 19.4743 14.7556 0.0112578
0.426875 -0.0225781 -0.137342 0.416225 19.4758 14.6506 0.0113013
0.415469 -0.0213281 -0.135087 0.417748 19.5181 14.7556 0.011184
0.412734 -0.0214063 -0.134548 0.423412 19.3654 14.6475 0.0110624
0.401875 -0.0226562 -0.13258 0.43031 19.3348 14.7533 0.011126
0.407656 -0.0232812 -0.133627 0.433663 19.3322 14.7821 0.01117
0.391875 -0.0207031 -0.133455 0.43559 19.4118 14.8204 0.0112541
0.377422 -0.0224219 -0.131555 0.436507 19.3249 14.8174 0.0110813
0.373203 -0.0216406 -0.130905 0.443946 19.448 14.7877 0.0112688
0.372422 -0.0210156 -0.129664 0.446999 19.4207 14.859 0.0111755
0.355234 -0.0221875 -0.129267 0.451385 19.432 14.824 0.011312
0.349766 -0.0221875 -0.127457 0.459157 19.3356 14.8795 0.0114875
0.341641 -0.021875 -0.126498 0.455722 19.3518 14.8643 0.0113403
0.340078 -0.0241406 -0.125282 0.468994 19.3142 14.8426 0.0113955
0.348047 -0.0232031 -0.125469 0.462759 19.5064 14.8447 0.0113748
0.365781 -0.0245313 -0.124255 0.465306 19.4204 14.9127 0.0113585
0.368359 -0.0235156 -0.124206 0.460338 19.3669 14.839 0.0112213
0.379297 -0.0253906 -0.125915 0.461232 19.4206 14.8284 0.0111813
0.390313 -0.025 -0.124306 0.456933 19.4418 14.8393 0.0112613
0.397656 -0.0254688 -0.12209 0.456166 19.4204 14.8424 0.0112817
0.401328 -0.0249219 -0.125681 0.450916 19.4378 14.849 0.0110979
0.413516 -0.0260937 -0.123701 0.448955 19.4258 14.8432 0.0113112
0.422187 -0.024375 -0.122619 0.453342 19.4311 14.8473 0.0112795
0.428125 -0.0266406 -0.122818 0.449443 19.419 14.8053 0.0112808
0.429297 -0.0258594 -0.122818 0.445128 19.49 14.8239 0.011408
0.438438 -0.0271875 -0.121294 0.447236 19.4902 14.8546 0.0111682
0.450781 -0.0248438 -0.124738 0.447365 19.319 14.8107 0.0113388
0.455937 -0.0263281 -0.124127 0.443701 19.3389 14.7947 0.0114106
0.474531 -0.0278125 -0.124015 0.436184 19.3342 14.8134 0.0111725
0.474297 -0.0271094 -0.124433 0.43081 19.4137 14.7889 0.0113435
0.477187 -0.0285156 -0.124794 0.431721 19.4354 14.7876 0.0111501
0.492656 -0.0272656 -0.12342 0.43037 19.4328 14.7844 0.0112753
0.504141 -0.0278125 -0.126378 0.435247 19.3207 14.7726 0.0112739
0.517031 -0.0282031 -0.126425 0.430493 19.3716 14.777 0.0113059
0.514609 -0.0289844 -0.126538 0.422087 19.4158 14.8004 0.011448
0.526484 -0.0283594 -0.122855 0.424944 19.4426 14.7418 0.0112459
0.533438 -0.0278906 -0.12726 0.416445 19.4336 14.7152 0.0113319
0.541406 -0.0284375 -0.124582 0.414253 19.4381 14.709 0.0113851
0.553047 -0.0294531 -0.126233 0.408786 19.518 14.7046 0.0110063
0.563984 -0.0286719 -0.125458 0.403015 19.504 14.7242 0.0114933
0.564141 -0.0282813 -0.127579 0.407108 19.3949 14.6797 0.0113167
0.580234 -0.0289063 -0.125656 0.401709 19.5272 14.7 0.0113418
0.584766 -0.0294531 -0.127543 0.395502 19.454 14.7197 0.0113117
0.593125 -0.0292969 -0.127405 0.397128 19.5077 14.7208 0.0113719
0.598438 -0.0303906 -0.128062 0.39384 19.3564 14.6463 0.011374
0.608203 -0.02875 -0.129571 0.397556 19.3601 14.6988 0.0114703
0.618125 -0.0303125 -0.12708 0.385146 19.4413 14.6515 0.0112404
0.620547 -0.0317188 -0.129618 0.382137 19.3933 14.6638 0.0113233
0.631953 -0.0319531 -0.131476 0.386915 19.4209 14.7331 0.0114093
0.645156 -0.0288281 -0.131975 0.383241 19.4348 14.6227 0.0115024
0.650625 -0.0316406 -0.130616 0.37667 19.5029 14.6561 0.011435
0.662891 -0.0311719 -0.131891 0.377923 19.363 14.5808 0.0113074
0.659453 -0.0297656 -0.131791 0.370091 19.4183 14.6541 0.011379
0.677734 -0.0323437 -0.132928 0.372276 19.4209 14.6913 0.0113744
0.685156 -0.034375 -0.13294 0.368549 19.4024 14.6143 0.0112713
0.689375 -0.0319531 -0.132683 0.364387 19.3508 14.5638 0.0111312
0.697813 -0.0342187 -0.132032 0.36161 19.3402 14.5559 0.0110771
0.711328 -0.0320312 -0.12918 0.354787 19.3244 14.4658 0.0111455
0.715 -0.0307812 -0.130188 0.349904 19.2935 14.5768 0.0111415
0.725859 -0.0321094 -0.127341 0.354413 19.3931 14.5713 0.011091
0.732734 -0.0324219 -0.132604 0.353957 19.3009 14.5652 0.0110073
0.735703 -0.0333594 -0.130223 0.348179 19.4669 14.5669 0.0111284
0.744141 -0.0342969 -0.129907 0.349989 19.2535 14.4945 0.0110685
0.755313 -0.0339844 -0.131002 0.346168 19.3649 14.54 0.0112554
0.759766 -0.0354688 -0.130345 0.34833 19.3054 14.5324 0.0110454
0.771406 -0.0364063 -0.132459 0.338518 19.307 14.5068 0.0108158
0.785234 -0.0375781 -0.132031 0.342324 19.3581 14.4265 0.0109189
0.788906 -0.0379688 -0.132801 0.331868 19.2544 14.522 0.0108543
0.799375 -0.036875 -0.130683 0.329214 19.3541 14.5025 0.0111787
0.805469 -0.0375781 -0.133891 0.326413 19.2865 14.562 0.010947
0.821172 -0.0389063 -0.132365 0.325816 19.2383 14.533 0.0108856
0.820312 -0.0363281 -0.13365 0.319421 19.2851 14.5186 0.0109213
0.831094 -0.0388281 -0.136366 0.316391 19.2869 14.4048 0.0110518
0.836953 -0.0391406 -0.135645 0.311066 19.3325 14.4896 0.0107228
0.847109 -0.0392188 -0.135748 0.308288 19.2121 14.501 0.0107414
0.847656 -0.039375 -0.135044 0.30906 19.2686 14.4739 0.0109675
0.866016 -0.0390625 -0.135368 0.302189 19.1481 14.4319 0.0109361
0.871328 -0.0407031 -0.134461 0.30035 19.2239 14.3975 0.0108459
0.876328 -0.0375781 -0.138014 0.295692 19.2239 14.4739 0.0106911
0.885078 -0.0384375 -0.140424 0.289475 19.1484 14.4564 0.0107922
0.895391 -0.04125 -0.139055 0.300241 19.0932 14.5259 0.0109082
0.900234 -0.0420312 -0.140107 0.28745 19.2322 14.4926 0.0108058
0.909062 -0.04375 -0.142296 0.286904 19.2345 14.5081 0.010597
0.910703 -0.0436719 -0.145037 0.289413 19.2854 14.4163 0.0106328
0.932031 -0.0469531 -0.144438 0.287821 19.2916 14.4947 0.0105693
0.935156 -0.0482812 -0.146695 0.286421 19.1926 14.3991 0.0107536
0.941406 -0.0517969 -0.14839 0.28546 19.1662 14.472 0.0106248
0.954141 -0.0561719 -0.147267 0.285715 19.1928 14.3738 0.0103978
0.965156 -0.0604688 -0.14591 0.281875 19.2036 14.4294 0.010527
0.969375 -0.0669531 -0.147366 0.269945 19.1551 14.3694 0.0105772
0.978281 -0.0735156 -0.147417 0.279461 19.1817 14.4246 0.0102691
0.983125 -0.0817188 -0.147943 0.278383 19.1845 14.4487 0.0104686
0.989688 -0.0915625 -0.149921 0.273211 19.2288 14.4563 0.0105267
0.997812 -0.0995313 -0.149194 0.278732 19.1413 14.4819 0.0105056
1.01156 -0.111328 -0.151325 0.267162 19.2042 14.4882 0.0104626
1.01898 -0.126875 -0.153259 0.265657 19.0608 14.3411 0.0103737
1.0332 -0.139375 -0.152344 0.265925 19.1346 14.4511 0.0102385
1.03867 -0.156641 -0.152306 0.270741 19.0709 14.3766 0.01036
1.03977 -0.171328 -0.15502 0.268618 19.1395 14.3251 0.0103785
1.05367 -0.192656 -0.155407 0.26712 19.0733 14.3449 0.0103575
1.06172 -0.210938 -0.155434 0.261599 19.1073 14.3629 0.0104296
1.06656 -0.236328 -0.156847 0.266325 19.2581 14.38 0.0105898
1.07648 -0.253594 -0.156668 0.267538 19.1606 14.4382 0.0103806
1.08133 -0.28125 -0.156591 0.262507 19.1382 14.2946 0.0103023
1.09602 -0.305312 -0.160112 0.26424 19.1271 14.3504 0.0101435
1.10492 -0.329219 -0.162114 0.257441 19.042 14.2371 0.0101458
1.10391 -0.3575 -0.162405 0.253664 19.0741 14.2859 0.0101663
1.11945 -0.379766 -0.163518 0.26206 19.094 14.2851 0.0102035
1.125 -0.407109 -0.164898 0.26392 19.0474 14.2409 0.0103395
1.13219 -0.434844 -0.162389 0.261372 19.1255 14.3718 0.0103424
1.14445 -0.465156 -0.164503 0.254899 19.1066 14.2847 0.0103099
1.14594 -0.490156 -0.16297 0.25512 19.155 14.2789 0.0101693
1.15609 -0.517344 -0.16643 0.257933 19.0196 14.3108 0.0102248
1.14484 -0.451953 -0.164911 0.259462 19.0156 14.2965 0.010211
1.14172 -0.398594 -0.164849 0.258848 19.0701 14.3867 0.0102272
1.13227 -0.351719 -0.166945 0.25669 19.1227 14.3296 0.010479
1.12891 -0.307031 -0.164717 0.256457 19.2109 14.3292 0.0104
1.11891 -0.270469 -0.168363 0.253612 19.1077 14.2852 0.0102806
1.1082 -0.238828 -0.167346 0.250878 19.0693 14.2781 0.0104272
1.10555 -0.213125 -0.16815 0.258991 19.201 14.3304 0.0105819
1.09727 -0.190781 -0.168298 0.255488 19.0266 14.2483 0.0102333
1.08 -0.170313 -0.167367 0.258833 19.058 14.3645 0.0103284
1.08211 -0.146875 -0.16618 0.252891 19.0323 14.2802 0.0104352
1.05789 -0.129062 -0.167537 0.257333 19.1129 14.3159 0.0105543
1.05563 -0.114609 -0.16748 0.257432 19.0715 14.2953 0.0105584
1.055 -0.103516 -0.166839 0.254174 19.0935 14.2558 0.0106189
1.04617 -0.0904688 -0.164294 0.258195 19.1589 14.2856 0.0102787
1.03625 -0.0830469 -0.165311 0.262915 19.143 14.3668 0.0105757
1.03156 -0.0710937 -0.165007 0.254306 18.981 14.3485 0.0105068
1.02 -0.0669531 -0.166529 0.254712 19.0057 14.3359 0.0105081
1.00445 -0.0625 -0.165472 0.255767 19.0369 14.3682 0.0101958
1.00094 -0.0566406 -0.166246 0.26282 19.0711 14.3078 0.0104581
0.993594 -0.0507812 -0.167027 0.260806 19.1324 14.3626 0.0104627
0.988828 -0.0476563 -0.166188 0.252883 19.0944 14.3344 0.0105306
0.978516 -0.0467188 -0.16715 0.255455 19.1188 14.2643 0.0105718
0.970781 -0.0438281 -0.163284 0.259047 19.1331 14.3304 0.0106022
0.963594 -0.0392188 -0.166968 0.260127 19.117 14.302 0.0103894
0.952031 -0.039375 -0.163969 0.25925 19.0478 14.4017 0.0106545
0.948828 -0.0389063 -0.164309 0.265836 19.2054 14.3228 0.0104641
0.941641 -0.0363281 -0.167482 0.262148 19.0359 14.3544 0.0105885
0.931875 -0.0359375 -0.163089 0.261981 19.092 14.3487 0.0104585
0.921328 -0.0357813 -0.165365 0.261158 19.1229 14.4811 0.01052
0.918203 -0.0316406 -0.164505 0.262493 19.1228 14.3753 0.0105602
0.908359 -0.0338281 -0.162389 0.265795 19.1746 14.367 0.0104376
0.897734 -0.0320312 -0.163345 0.26419 19.2023 14.327 0.0104264
0.886328 -0.0333594 -0.163193 0.268062 19.1444 14.3294 0.010603
0.882734 -0.0329687 -0.161615 0.264475 19.0884 14.3175 0.0107233
0.870625 -0.0326562 -0.162314 0.2685 19.1251 14.345 0.0107528
0.861406 -0.0297656 -0.163265 0.273844 19.1566 14.3323 0.010649
0.855156 -0.0308594 -0.160778 0.273016 19.1945 14.3848 0.0105758
0.84875 -0.0297656 -0.162314 0.278735 19.1099 14.3657 0.0106647
0.84125 -0.029375 -0.160779 0.274698 19.0501 14.4076 0.0107735
0.830391 -0.029375 -0.161757 0.284341 19.1771 14.4066 0.010585
0.825078 -0.0297656 -0.161853 0.279444 19.1979 14.4117 0.0105243
0.816562 -0.0276563 -0.162744 0.28265 19.282 14.3818 0.0107191
0.812969 -0.0289844 -0.16059 0.292661 19.2246 14.3983 0.0108547
0.8 -0.0271094 -0.161532 0.287377 19.1351 14.3903 0.0106675
0.775781 -0.0274219 -0.161899 0.293277 19.193 14.3965 0.0107918
0.774297 -0.0255469 -0.160937 0.293249 19.1499 14.419 0.0107956
0.771719 -0.0282031 -0.162752 0.297617 19.1219 14.3489 0.010857
0.758828 -0.0297656 -0.161649 0.297671 19.1915 14.4132 0.0107365
0.757109 -0.0294531 -0.163808 0.299282 19.2 14.4313 0.0108713
0.751484 -0.0275781 -0.163526 0.301202 19.206 14.3628 0.0108325
0.742109 -0.0269531 -0.163658 0.302488 19.2115 14.4833 0.0107046
0.735078 -0.0277344 -0.163162 0.301019 19.1854 14.4771 0.0108267
0.728906 -0.0282031 -0.160618 0.302971 19.2471 14.4027 0.0108959
0.71625 -0.0275781 -0.162993 0.310521 19.1851 14.4489 0.0109544
0.704297 -0.0264062 -0.160936 0.31195 19.2255 14.5083 0.0108497
0.696328 -0.0265625 -0.161314 0.31554 19.266 14.4554 0.0110646
0.697734 -0.0285938 -0.163529 0.318104 19.3084 14.396 0.0109648
0.676484 -0.0266406 -0.158863 0.320333 19.3011 14.4406 0.0107812
0.676797 -0.0279688 -0.157315 0.320335 19.2088 14.4761 0.0107958
0.666563 -0.0267969 -0.158059 0.321039 19.2265 14.5853 0.0107897
0.661016 -0.0264844 -0.159381 0.326619 19.2677 14.5337 0.010852
0.653125 -0.0265625 -0.159075 0.326774 19.2486 14.5234 0.0110502
0.639219 -0.0261719 -0.157492 0.331405 19.2298 14.4662 0.0109616
0.636797 -0.0267187 -0.156653 0.331778 19.2592 14.4496 0.0108525
0.619219 -0.0269531 -0.155926 0.336868 19.2501 14.5675 0.0110361
0.617188 -0.0254688 -0.153452 0.338768 19.272 14.5655 0.0109609
0.606953 -0.0246094 -0.155636 0.341825 19.2343 14.5067 0.0111078
0.598672 -0.0253906 -0.155203 0.346127 19.2934 14.6006 0.0108843
0.590313 -0.0257031 -0.154628 0.342371 19.3524 14.5603 0.0108769
0.585313 -0.0260937 -0.151645 0.351903 19.1863 14.4803 0.0111675
0.574219 -0.0239063 -0.155056 0.352219 19.2733 14.5814 0.0112056
0.570781 -0.02625 -0.154273 0.36073 19.343 14.6417 0.0113992
0.566484 -0.0247656 -0.154057 0.362255 19.3181 14.6041 0.0110321
0.552422 -0.0233594 -0.151975 0.363124 19.3242 14.5455 0.0114003
0.549375 -0.025625 -0.153119 0.365213 19.3386 14.6337 0.0112115
0.533984 -0.025 -0.151204 0.370478 19.3511 14.559 0.0111555
0.52 -0.0255469 -0.150851 0.371371 19.3536 14.5838 0.0113642
0.519922 -0.0240625 -0.147878 0.371881 19.3724 14.6278 0.0111237
0.510469 -0.0236719 -0.147557 0.379969 19.351 14.6718 0.0112545
0.494609 -0.025 -0.145147 0.38371 19.4008 14.6083 0.0111286
0.491641 -0.0238281 -0.146871 0.388101 19.2839 14.6499 0.0110939
0.481094 -0.0232031 -0.143802 0.388977 19.3599 14.6172 0.0112425
0.478281 -0.02375 -0.144126 0.387313 19.3842 14.6936 0.0113202
0.4575 -0.0238281 -0.143203 0.394126 19.381 14.7135 0.0111693
0.456562 -0.0232031 -0.143295 0.401963 19.4447 14.6699 0.0113463
0.447969 -0.0210938 -0.140783 0.406331 19.4216 14.8275 0.0113914
0.441875 -0.0225781 -0.142253 0.404082 19.2747 14.5956 0.0110535
0.438984 -0.0233594 -0.140805 0.411633 19.463 14.7677 0.0115302
0.430781 -0.0228125 -0.138401 0.406594 19.536 14.6931 0.0115768
0.418516 -0.0232031 -0.138228 0.420436 19.4515 14.6748 0.0113045
0.406719 -0.0213281 -0.139094 0.427837 19.4108 14.7055 0.0114949
0.406328 -0.0225 -0.135283 0.419712 19.4036 14.7539 0.0113581
0.389453 -0.0220312 -0.133996 0.428521 19.4386 14.7507 0.0114812
0.385703 -0.0200781 -0.131485 0.426778 19.3837 14.7789 0.0115073
0.377031 -0.0222656 -0.135452 0.4391 19.2906 14.7427 0.0113389
0.372266 -0.021875 -0.131318 0.436093 19.343 14.7711 0.011413
0.364141 -0.0203125 -0.131111 0.448082 19.4122 14.7134 0.0113538
0.362578 -0.0208594 -0.131416 0.451946 19.3663 14.8267 0.011435
0.340703 -0.020625 -0.12766 0.454573 19.3378 14.7857 0.0114128
0.334141 -0.0223437 -0.130919 0.459625 19.346 14.7546 0.0114107
0.349453 -0.0235938 -0.127171 0.459061 19.417 14.8311 0.0113998
0.363203 -0.0244531 -0.128942 0.459542 19.475 14.8685 0.0115381
0.365938 -0.0246094 -0.124694 0.457873 19.4687 14.8617 0.0115665
0.366641 -0.0246094 -0.124984 0.461164 19.4644 14.7735 0.0114387
0.380156 -0.025 -0.125536 0.461009 19.4271 14.8107 0.0113458
0.393984 -0.0259375 -0.124503 0.455574 19.4171 14.7755 0.0112733
0.400547 -0.0264844 -0.123935 0.455351 19.4616 14.8628 0.0114426
0.397344 -0.0257031 -0.123591 0.448023 19.4683 14.7439 0.0114299
0.414922 -0.0263281 -0.124434 0.442805 19.3873 14.7812 0.0112917
0.425234 -0.0260156 -0.123883 0.450649 19.3543 14.8404 0.0113729
0.426406 -0.0245313 -0.124823 0.446109 19.385 14.8341 0.0114547
0.438984 -0.0273438 -0.125499 0.444508 19.4009 14.7666 0.0115299
0.450781 -0.0265625 -0.122854 0.440952 19.4793 14.8066 0.0113551
0.454219 -0.0249219 -0.125922 0.444813 19.3694 14.7956 0.0113963
0.462656 -0.0271875 -0.126444 0.435401 19.3673 14.7981 0.0113217
0.468359 -0.0272656 -0.125131 0.439757 19.421 14.8196 0.0113064
0.479922 -0.02875 -0.128152 0.429367 19.3052 14.7988 0.0114269
0.503047 -0.0265625 -0.125873 0.43429 19.4926 14.8143 0.0116312
0.501875 -0.0259375 -0.126744 0.428548 19.4407 14.7313 0.0111532
0.501406 -0.0285938 -0.125462 0.422142 19.2706 14.6708 0.0112749
0.520547 -0.02625 -0.126415 0.415293 19.5414 14.7857 0.0114781
0.526094 -0.0280469 -0.123314 0.418193 19.5073 14.7944 0.0114205
0.530234 -0.0285156 -0.124605 0.412451 19.5 14.7377 0.0113068
0.537656 -0.0275781 -0.123628 0.408279 19.3819 14.6594 0.0113567
0.55625 -0.0279688 -0.123996 0.409223 19.4066 14.6805 0.0113426
0.553438 -0.0289844 -0.125564 0.413243 19.4364 14.7309 0.0114768
0.564219 -0.0286719 -0.12695 0.407613 19.4086 14.684 0.011373
0.567031 -0.02875 -0.126995 0.405619 19.4012 14.6998 0.0113384
0.577031 -0.029375 -0.127664 0.400076 19.407 14.7123 0.0115512
0.585313 -0.02875 -0.128978 0.394284 19.3663 14.7343 0.0114792
0.598281 -0.0296094 -0.129686 0.392902 19.2955 14.6505 0.0114327
0.606406 -0.0317188 -0.129361 0.384689 19.4706 14.7056 0.011413
0.608594 -0.0310156 -0.129731 0.378256 19.3741 14.5635 0.011356
0.617812 -0.0308594 -0.131302 0.380239 19.4801 14.6796 0.0114692
0.620469 -0.0296875 -0.133085 0.378134 19.3545 14.6559 0.0114385
0.635703 -0.0296875 -0.133922 0.375446 19.4138 14.6037 0.0113577
0.653125 -0.0325781 -0.131227 0.378541 19.4297 14.5599 0.0112394
0.657109 -0.0316406 -0.130658 0.369304 19.408 14.6791 0.0111954
0.676719 -0.0317969 -0.133876 0.371903 19.3397 14.6031 0.0115575
0.668125 -0.0328906 -0.13001 0.366504 19.2543 14.5407 0.01143
0.671875 -0.031875 -0.132168 0.360867 19.2877 14.556 0.0111943
0.684219 -0.0297656 -0.128786 0.364602 19.3448 14.5855 0.0110622
0.683359 -0.0322656 -0.132458 0.357637 19.3314 14.577 0.0110156