File: scripts/CV_XRD/data/ascii/I20180835_244_CV_XRD.dat
# I20180835 #244 CV with XRD
# Potential / V, Current Density / mA/cm^2, Strain ip / %, Strain oop / %, d ip / nm, d oop / nm, Intensity (area ip)
0.381563 -0.0302344 -0.117352 0.392993 19.2981 14.716 0.00918607
0.367969 -0.0292969 -0.118401 0.389995 19.3093 14.6245 0.00904222
0.3725 -0.0325 -0.12034 0.384489 19.2615 14.6202 0.00916915
0.381406 -0.0319531 -0.120524 0.388673 19.2679 14.66 0.00903243
0.389375 -0.0336719 -0.118293 0.385153 19.3435 14.6767 0.0091779
0.39625 -0.0316406 -0.12006 0.387945 19.2366 14.6889 0.0092416
0.401875 -0.035 -0.120775 0.388394 19.2735 14.6091 0.00894987
0.408594 -0.0328906 -0.120459 0.384547 19.2684 14.6145 0.00897153
0.417656 -0.0359375 -0.121824 0.385713 19.2944 14.5585 0.00929498
0.441641 -0.0344531 -0.120218 0.375291 19.2255 14.4272 0.0089615
0.443359 -0.038125 -0.123995 0.378332 19.2738 14.5681 0.0091825
0.445 -0.0357813 -0.122367 0.373683 19.2957 14.5743 0.00909429
0.458984 -0.0395313 -0.123476 0.365762 19.2101 14.6343 0.00890177
0.469688 -0.038125 -0.12695 0.368942 19.2989 14.628 0.0092296
0.477813 -0.0375 -0.125948 0.369572 19.3454 14.627 0.00905225
0.480547 -0.0389063 -0.125959 0.35591 19.1634 14.4157 0.00906923
0.478984 -0.0414844 -0.126148 0.354066 19.1014 14.4734 0.00891696
0.501406 -0.036875 -0.128051 0.357278 19.2221 14.4252 0.00873302
0.507266 -0.0408594 -0.132023 0.353542 19.1221 14.5258 0.0087987
0.519375 -0.0403906 -0.131873 0.34561 19.0605 14.4636 0.00882313
0.528438 -0.0396875 -0.1341 0.344518 19.0451 14.5609 0.00868773
0.532031 -0.03875 -0.134021 0.345489 19.0151 14.4627 0.00899589
0.541172 -0.0421094 -0.136471 0.339807 19.0431 14.348 0.00854404
0.544141 -0.0388281 -0.136602 0.341826 19.095 14.4071 0.00859782
0.556641 -0.0322656 -0.142193 0.340837 19.1287 14.3288 0.00844671
0.572969 -0.03625 -0.142151 0.337321 19.1828 14.3717 0.00875876
0.572734 -0.0396875 -0.143721 0.334029 19.1165 14.508 0.00865367
0.585078 -0.0432813 -0.144803 0.331809 19.0083 14.3258 0.00856893
0.59625 -0.046875 -0.145127 0.326373 18.9878 14.3437 0.00862179
0.597578 -0.0499219 -0.148223 0.329724 19.0916 14.3243 0.00847421
0.609688 -0.0577344 -0.146894 0.331865 19.1663 14.3432 0.00865652
0.615 -0.0684375 -0.149193 0.331163 19.0631 14.4441 0.00858171
0.610391 -0.0830469 -0.149526 0.324925 19.1029 14.384 0.00840259
0.634609 -0.103281 -0.152841 0.329542 18.8966 14.2767 0.00851965
0.644922 -0.129766 -0.151834 0.324721 18.9414 14.3842 0.00841889
0.646875 -0.166328 -0.15409 0.319753 19.0081 14.2881 0.00837447
0.65875 -0.212266 -0.152522 0.327489 19.0436 14.3185 0.00838728
0.669922 -0.261875 -0.154729 0.317229 18.9798 14.3725 0.00826315
0.663281 -0.210938 -0.156592 0.32572 19.1435 14.468 0.00808975
0.654687 -0.171875 -0.157972 0.325346 19.0008 14.4255 0.00834474
0.641563 -0.136094 -0.156382 0.323396 19.108 14.2508 0.00825434
0.633516 -0.11 -0.161341 0.32271 19.1216 14.3349 0.00831825
0.617031 -0.0817188 -0.158745 0.32352 18.961 14.3124 0.00835437
0.616016 -0.0702344 -0.158011 0.322959 19.0337 14.3395 0.00811898
0.599063 -0.0573437 -0.159182 0.329625 19.0805 14.3032 0.00840421
0.60625 -0.0511719 -0.157635 0.321467 19.056 14.3812 0.00841607
0.589844 -0.0453906 -0.155914 0.319774 19.1426 14.3409 0.00839632
0.576484 -0.0419531 -0.161078 0.327669 18.9681 14.39 0.00849708
0.574141 -0.0340625 -0.161308 0.328092 18.9417 14.3726 0.00839404
0.566016 -0.0355469 -0.158257 0.328096 19.1016 14.484 0.00843459
0.558828 -0.0347656 -0.158295 0.330051 18.9739 14.409 0.00863571
0.550703 -0.0314063 -0.158215 0.322306 19.0827 14.413 0.00853903
0.538984 -0.03125 -0.159146 0.334755 19.0817 14.3323 0.00842087
0.533672 -0.033125 -0.159859 0.332877 19.074 14.3555 0.00847469
0.51625 -0.0292188 -0.157342 0.332625 19.1556 14.2991 0.00860511
0.515703 -0.0309375 -0.158332 0.326997 19.0117 14.3807 0.00880498
0.506953 -0.0325781 -0.156039 0.336619 19.0334 14.2419 0.00859359
0.500469 -0.0296094 -0.155724 0.331082 19.0492 14.4023 0.00853372
0.491328 -0.0292969 -0.153163 0.333442 19.1373 14.394 0.00847304
0.482656 -0.0296094 -0.15649 0.342417 19.1774 14.465 0.00853557
0.469609 -0.0283594 -0.155633 0.340833 19.0251 14.3623 0.00866041
0.467969 -0.0280469 -0.153318 0.335374 19.1541 14.5063 0.00860238
0.459453 -0.03 -0.15149 0.341718 19.068 14.3262 0.00851877
0.448906 -0.0307812 -0.151054 0.342482 19.1817 14.456 0.00877882
0.444297 -0.0280469 -0.151742 0.346579 19.1467 14.4812 0.00883688
0.427891 -0.0272656 -0.154147 0.348381 19.1752 14.4997 0.00861731
0.415078 -0.0253125 -0.154805 0.349424 19.2292 14.4681 0.00899584
0.413828 -0.0292969 -0.151059 0.35085 19.0954 14.4667 0.00877393
0.407813 -0.0305469 -0.151809 0.356254 19.2236 14.4261 0.00890525
0.398828 -0.0285156 -0.150209 0.35433 19.1032 14.4665 0.00903839
0.395781 -0.0283594 -0.148903 0.357679 19.1288 14.5231 0.00889101
0.388281 -0.0302344 -0.150781 0.358331 19.1412 14.5059 0.00887216
0.371719 -0.0289844 -0.146571 0.365037 19.277 14.635 0.0090698
0.3675 -0.0292188 -0.14787 0.365835 19.3831 14.5326 0.00912667
0.357891 -0.0278906 -0.148173 0.370918 19.2467 14.5723 0.00879981
0.347734 -0.0292969 -0.147 0.368782 19.2169 14.5353 0.00907375
0.342266 -0.0292188 -0.145956 0.370384 19.3622 14.64 0.00898053
0.335469 -0.0284375 -0.143089 0.376152 19.2381 14.5774 0.0091309
0.326094 -0.0292188 -0.139423 0.374227 19.2964 14.5612 0.00907887
0.319063 -0.0283594 -0.1425 0.3779 19.2554 14.6019 0.00897995
0.299531 -0.0285938 -0.145994 0.372327 19.3049 14.5361 0.00874288
0.305547 -0.0291406 -0.14055 0.385123 19.3494 14.5735 0.00918189
0.296172 -0.0275781 -0.14113 0.375104 19.2809 14.5557 0.00893114
0.278438 -0.0290625 -0.140718 0.386399 19.287 14.6251 0.00890072
0.280313 -0.0282813 -0.138254 0.382856 19.2351 14.6097 0.0089924
0.264922 -0.0273438 -0.140875 0.383464 19.2712 14.6064 0.00908074
0.262813 -0.0258594 -0.138713 0.389515 19.1705 14.6832 0.00916697
0.251797 -0.0273438 -0.13421 0.382003 19.2341 14.568 0.00921386
0.241875 -0.0246094 -0.134856 0.395791 19.2281 14.5261 0.00886411
0.238828 -0.0252344 -0.137357 0.398399 19.223 14.6036 0.00899041
0.217344 -0.0260156 -0.133544 0.401075 19.2949 14.6971 0.00930281
0.215781 -0.0252344 -0.132231 0.39554 19.1691 14.6972 0.00925896
0.203906 -0.0267187 -0.133712 0.399105 19.3098 14.6585 0.00901084
0.203281 -0.0278125 -0.131802 0.403958 19.3524 14.6518 0.00909072
0.192109 -0.0265625 -0.132091 0.406355 19.2431 14.6955 0.0091882
0.188906 -0.0251563 -0.13085 0.409797 19.3323 14.6926 0.00931138
0.177266 -0.0248438 -0.129091 0.419027 19.3277 14.6883 0.00909291
0.170234 -0.024375 -0.132366 0.418484 19.3202 14.7192 0.00928767
0.165938 -0.0260156 -0.130016 0.412641 19.4771 14.7271 0.00925801
0.149922 -0.0257031 -0.129346 0.416399 19.1528 14.6714 0.00932908
0.142109 -0.025 -0.132097 0.424248 19.1259 14.7111 0.00908548
0.137187 -0.0225781 -0.127684 0.426683 19.3082 14.8487 0.00934599
0.131953 -0.0241406 -0.125844 0.429657 19.276 14.8576 0.00923229
0.114141 -0.0235938 -0.125193 0.430094 19.3021 14.6427 0.00923138
0.115469 -0.0259375 -0.122262 0.433644 19.3912 14.835 0.00934856
0.103828 -0.0246875 -0.123333 0.435412 19.1649 14.7557 0.00895261
0.0935156 -0.0224219 -0.122923 0.442667 19.2234 14.8453 0.00927114
0.085625 -0.0246094 -0.122435 0.447471 19.2815 14.7476 0.0091972
0.0823438 -0.0225781 -0.120166 0.451879 19.302 14.8022 0.00948542
0.0675781 -0.0240625 -0.122726 0.454963 19.1792 14.8151 0.00914139
0.0620313 -0.0253906 -0.120287 0.453625 19.2359 14.738 0.00914198
0.0526563 -0.0248438 -0.117147 0.459725 19.4233 14.7887 0.00922545
0.0373438 -0.024375 -0.118797 0.457794 19.3876 14.8944 0.00915624
0.0340625 -0.0241406 -0.115831 0.465466 19.323 14.849 0.00932219
0.031875 -0.0251563 -0.115393 0.46391 19.2411 14.9207 0.00889235
0.0303125 -0.024375 -0.117858 0.46862 19.4785 14.8371 0.00917121
0.00773437 -0.0235938 -0.110951 0.470733 19.4064 14.9237 0.00895951
0.00710938 -0.0233594 -0.113577 0.479285 19.3251 14.9419 0.00902726
-0.00835938 -0.0239844 -0.113297 0.479705 19.2956 14.9121 0.00915052
-0.0171875 -0.023125 -0.116471 0.48706 19.2936 14.8987 0.0089816
-0.0192187 -0.02375 -0.110618 0.487701 19.1984 14.8965 0.00920609
-0.0217188 -0.0234375 -0.110312 0.49623 19.338 14.9348 0.00926562
-0.0160938 -0.0255469 -0.106316 0.495314 19.2188 14.9896 0.00929236
-0.0100781 -0.025625 -0.107989 0.491817 19.2498 14.9318 0.009186
-0.00546875 -0.0267187 -0.109957 0.500168 19.2108 14.9504 0.00931744
0.0065625 -0.0267969 -0.110941 0.495292 19.2581 14.8819 0.00920918
0.0307031 -0.0269531 -0.103629 0.495706 19.135 14.9834 0.00929733
0.0297656 -0.0264062 -0.108031 0.479925 19.2823 14.9097 0.00920314
0.0411719 -0.0271094 -0.110448 0.49022 19.308 14.8931 0.00913832
0.0467188 -0.0277344 -0.108047 0.485526 19.2282 14.824 0.00919981
0.0597656 -0.0267187 -0.105802 0.485631 19.1816 14.9576 0.00911063
0.0653906 -0.0298438 -0.104612 0.481832 19.2778 14.8946 0.00923354
0.0628125 -0.0266406 -0.107898 0.47876 19.283 14.8654 0.00913643
0.0739063 -0.0278906 -0.106973 0.484278 19.286 14.8694 0.00909522
0.0908594 -0.0296094 -0.108874 0.484338 19.2535 14.8341 0.0091715
0.0915625 -0.0291406 -0.109642 0.473935 19.2979 14.9547 0.00916921
0.105938 -0.0276563 -0.110513 0.473821 19.2442 14.9298 0.00902301
0.112656 -0.0285156 -0.107661 0.476887 19.3992 14.7855 0.00925292
0.113516 -0.0308594 -0.107405 0.470932 19.2127 14.9242 0.0091267
0.131172 -0.02875 -0.10896 0.46506 19.346 14.908 0.00944639
0.127188 -0.0276563 -0.107728 0.465331 19.1439 14.8371 0.00912514
0.14 -0.0289063 -0.107345 0.457471 19.4033 14.8972 0.00907195
0.147187 -0.0298438 -0.108767 0.458413 19.2952 14.8414 0.0091271
0.152266 -0.0290625 -0.108295 0.45693 19.3811 14.783 0.00933941
0.168359 -0.0289844 -0.108635 0.451607 19.2699 14.8907 0.00927222
0.181016 -0.0296094 -0.106147 0.451569 19.2612 14.9024 0.0091075
0.182344 -0.0321875 -0.110084 0.447365 19.3602 14.8913 0.0092065
0.196094 -0.0303906 -0.11003 0.444349 19.3693 14.9177 0.00928166
0.199219 -0.030625 -0.109524 0.446909 19.2828 14.7818 0.00934717
0.211172 -0.03125 -0.110427 0.450956 19.3372 14.7288 0.00935302
0.209609 -0.0332031 -0.110291 0.43997 19.3624 14.7473 0.00917336
0.225391 -0.0325 -0.113145 0.438559 19.2876 14.8395 0.00915948
0.240859 -0.0303906 -0.110949 0.440158 19.2909 14.9066 0.00936126
0.235 -0.0326562 -0.113638 0.4393 19.2607 14.7281 0.0095049
0.259375 -0.0303125 -0.115148 0.43134 19.2517 14.8552 0.00922724
0.264062 -0.0335937 -0.111204 0.431442 19.3028 14.8563 0.00909389
0.264688 -0.0325781 -0.112548 0.428836 19.2906 14.7819 0.00917887
0.279375 -0.0332031 -0.116054 0.435103 19.2488 14.7838 0.00923411
0.282656 -0.0340625 -0.113544 0.426012 19.2384 14.7485 0.00913512
0.290469 -0.0327344 -0.113312 0.422719 19.3219 14.6709 0.00916275
0.295547 -0.0345312 -0.115106 0.424696 19.4322 14.8333 0.00916941
0.308984 -0.0344531 -0.115454 0.423668 19.2283 14.8203 0.00920484
0.321563 -0.0347656 -0.117343 0.424067 19.2631 14.7188 0.00903274
0.322891 -0.0347656 -0.117446 0.421307 19.2279 14.6963 0.00907675
0.345313 -0.0332812 -0.116402 0.413139 19.2257 14.7843 0.00902869
0.340313 -0.0346094 -0.11943 0.4177 19.2559 14.7221 0.00916023
0.351484 -0.0349219 -0.118929 0.411008 19.3006 14.7276 0.00907986
0.359063 -0.0353125 -0.117761 0.410524 19.3407 14.6818 0.0091552
0.368125 -0.0345312 -0.116768 0.410597 19.412 14.6345 0.00933553
0.371563 -0.0341406 -0.121367 0.399809 19.263 14.6999 0.00927887
0.380547 -0.0377344 -0.116602 0.399597 19.367 14.6382 0.00929313
0.383125 -0.0378906 -0.117182 0.395655 19.306 14.5627 0.00926668
0.403828 -0.035 -0.119407 0.401587 19.295 14.6366 0.00915971
0.408516 -0.0349219 -0.119708 0.396886 19.2596 14.619 0.00931272
0.416719 -0.0361719 -0.121099 0.392247 19.2538 14.5248 0.00919775
0.430156 -0.0382813 -0.123754 0.387812 19.3678 14.5958 0.00912211
0.430938 -0.0378906 -0.12278 0.385633 19.2743 14.4906 0.00900895
0.449453 -0.0389063 -0.125507 0.38616 19.2653 14.5698 0.00915347
0.439609 -0.0382031 -0.123452 0.37432 19.2453 14.5633 0.00920726
0.462188 -0.0371875 -0.126604 0.370704 19.1534 14.5359 0.00924834
0.466562 -0.0375781 -0.129332 0.372394 19.1714 14.5693 0.00921923
0.46625 -0.0425 -0.128233 0.364658 19.1558 14.6431 0.00909469
0.480234 -0.0404687 -0.13135 0.365462 19.1819 14.4974 0.00909411
0.493516 -0.0375781 -0.13633 0.359429 19.2205 14.5937 0.00887974
0.498672 -0.0392188 -0.132562 0.356797 19.2233 14.504 0.00891405
0.508516 -0.0432031 -0.131682 0.351493 19.0857 14.38 0.00890136
0.506797 -0.03875 -0.13633 0.347306 19.1113 14.6006 0.00898628
0.530312 -0.0380469 -0.137266 0.349571 19.1973 14.4243 0.00882937
0.530391 -0.0400781 -0.138314 0.343492 19.0571 14.427 0.00905672
0.544297 -0.0392969 -0.140992 0.342043 19.2859 14.4243 0.00878483
0.548281 -0.0425 -0.145399 0.338255 19.2046 14.4502 0.00912204
0.549219 -0.0397656 -0.145222 0.344902 19.2277 14.4222 0.00877198
0.566016 -0.0430469 -0.145037 0.335608 19.0707 14.4054 0.00864196
0.574219 -0.0414062 -0.144465 0.341743 19.1499 14.4114 0.00867004
0.578984 -0.0454688 -0.146871 0.338838 19.1624 14.3196 0.00848906
0.591172 -0.045 -0.145748 0.333858 19.0724 14.355 0.00878873
0.589141 -0.053125 -0.143959 0.325439 18.9792 14.4599 0.00860356
0.605703 -0.0585156 -0.149226 0.330872 18.9961 14.3408 0.0085821
0.617109 -0.0660938 -0.149827 0.328742 19.1051 14.3676 0.00852228
0.624688 -0.0775781 -0.151522 0.323434 19.2016 14.187 0.0084449
0.635547 -0.0984375 -0.154805 0.331772 19.1681 14.2839 0.00857753
0.643437 -0.124844 -0.155065 0.321771 19.1212 14.3941 0.00841456
0.655391 -0.157656 -0.154396 0.32999 19.0056 14.2555 0.00867729
0.657109 -0.202344 -0.155051 0.328865 19.0395 14.3937 0.00858419
0.665469 -0.24875 -0.159296 0.320678 18.9227 14.2655 0.00858624
0.664297 -0.226328 -0.15949 0.323127 18.9725 14.2929 0.00850351
0.649141 -0.183047 -0.156661 0.323856 19.0531 14.269 0.0086174
0.644297 -0.147031 -0.158737 0.325494 18.9594 14.2972 0.00841206
0.637344 -0.120703 -0.156896 0.315762 19.0707 14.4121 0.00878004
0.627188 -0.0982813 -0.155806 0.320755 18.9122 14.188 0.00842488
0.620234 -0.0814062 -0.15785 0.322057 18.8824 14.3223 0.00854089
0.609297 -0.0650781 -0.158053 0.331185 18.9143 14.1876 0.0085041
0.602578 -0.0557031 -0.155233 0.322868 18.9717 14.2478 0.00840916
0.585 -0.0471094 -0.159084 0.326195 19.0452 14.3048 0.00865946
0.584219 -0.0415625 -0.159689 0.331968 19.0917 14.3607 0.00856246
0.575625 -0.0417969 -0.159959 0.327984 19.0865 14.5131 0.00860229
0.565 -0.0347656 -0.161002 0.32939 19.1413 14.327 0.00866671
0.559844 -0.0352344 -0.161196 0.327633 19.0876 14.3482 0.00847691
0.546016 -0.0353125 -0.156411 0.333907 19.0951 14.3378 0.00866814
0.549297 -0.0321094 -0.157834 0.327704 19.1149 14.3958 0.00879408
0.54 -0.0307031 -0.157801 0.326728 19.0639 14.3175 0.00869443
0.523438 -0.0344531 -0.156479 0.330249 19.0913 14.4295 0.00841864
0.523047 -0.0296875 -0.156804 0.327289 19.1813 14.3814 0.00853134
0.50625 -0.0319531 -0.157715 0.334607 19.2088 14.3718 0.00846022
0.499688 -0.0309375 -0.155159 0.335678 19.0195 14.362 0.00894252
0.485469 -0.0333594 -0.151547 0.337522 19.2351 14.3642 0.00864331
0.486797 -0.03 -0.151369 0.336983 19.1032 14.3487 0.00880915
0.477031 -0.0317188 -0.154228 0.338717 19.1309 14.4082 0.00884176
0.467969 -0.0322656 -0.152042 0.336811 19.089 14.4106 0.00853401
0.464609 -0.0291406 -0.15089 0.341669 19.0908 14.4385 0.00870879
0.444141 -0.03 -0.147141 0.343384 19.2062 14.4838 0.00856437
0.448828 -0.0319531 -0.147772 0.342462 19.1377 14.3659 0.0086102
0.436641 -0.0298438 -0.14774 0.335912 19.1696 14.5249 0.0084739
0.428594 -0.0255469 -0.146609 0.348668 19.1948 14.4483 0.00857507
0.421484 -0.0302344 -0.149207 0.355117 19.2131 14.4194 0.0089094
0.413359 -0.0304687 -0.144295 0.359677 19.1411 14.5142 0.00888498
0.407578 -0.0278125 -0.146331 0.349124 19.107 14.4887 0.00875988
0.400938 -0.0297656 -0.146368 0.360821 19.1954 14.5885 0.00873628
0.38125 -0.0284375 -0.146097 0.361146 19.1983 14.4249 0.0087159
0.374297 -0.0292969 -0.144569 0.365579 19.2965 14.4308 0.00908499
0.364141 -0.0297656 -0.138482 0.361824 19.1243 14.4514 0.00881629
0.358984 -0.0303906 -0.140651 0.357111 19.1569 14.4341 0.00874216
0.347187 -0.029375 -0.140911 0.367311 19.2713 14.5242 0.00874403
0.348125 -0.0283594 -0.143873 0.363944 19.3015 14.5017 0.00902546
0.331406 -0.02875 -0.139288 0.369098 19.2607 14.5269 0.00903256
0.325781 -0.0294531 -0.141844 0.37227 19.1847 14.5434 0.00907823
0.320078 -0.0270312 -0.140883 0.371119 19.2862 14.6066 0.00917636
0.315547 -0.0284375 -0.140686 0.378761 19.1449 14.5625 0.00923154
0.301563 -0.0283594 -0.140993 0.380435 19.3081 14.6665 0.0094517
0.289609 -0.0286719 -0.140153 0.375196 19.2302 14.597 0.00934396
0.288203 -0.029375 -0.142375 0.384845 19.1637 14.6136 0.00927607
0.273828 -0.0296094 -0.138919 0.381792 19.3158 14.6978 0.00928273
0.261953 -0.0284375 -0.140145 0.38772 19.1843 14.5817 0.00916884
0.263281 -0.0257813 -0.193121 0.332572 18.8686 14.5491 0.0064588
0.254375 -0.0265625 -0.214298 0.320204 18.6455 14.3219 0.00518204
0.247344 -0.0271094 -0.229675 0.321699 18.6036 14.2923 0.0051341
0.2375 -0.0267187 -0.191428 0.314228 18.7731 14.3448 0.00492128
0.236875 -0.0260937 -0.144818 0.37271 19.2171 14.2925 0.00357344
0.221172 -0.0257813 -0.0876084 0.428213 19.2676 14.208 0.00131029
0.206016 -0.0227344 -0.0591091 0.4271 17.139 11.7283 0.000631037
0.195938 -0.0227344 0.271898 0.289396 18.5083 14.7924 0.000250782
0.193906 -0.0250781 0.694328 2.00785 17.9047 49.2958 3.41333e-21
0.192109 -0.0228125 6.07676 -10.4374 15.1099 15.5148 2.45198e-15
0.183594 -0.0260156 5.96873 -10.6039 19.259 19.4687 1.22604e-16
0.170469 -0.02375 4.70518 -10.9704 16.0174 9.38799 1.71887e-16
0.162969 -0.0254688 6.16584 -10.4521 20.0628 22.9684 6.31815e-16
0.154375 -0.0235156 5.36575 -10.7764 22.836 15.9309 3.28235e-14
0.150859 -0.0257813 4.85902 -9.00554 17.2717 14.4258 9.8334e-15
0.140781 -0.0264844 4.18041 -7.29668 25.6653 14.8729 6.02756e-14
0.133984 -0.0219531 4.36246 -12.1625 32.066 14.3916 3.07905e-22
0.120078 -0.0225 4.95562 -12.5852 22.273 14.5734 7.13924e-14
0.112344 -0.0241406 4.66007 -12.1779 12.8068 14.3907 1.26866e-18
0.103906 -0.0248438 4.89294 -6.66929 32.8241 14.2086 6.61966e-24
0.0985938 -0.0244531 5.1412 -7.39249 104.939 15.0884 3.99768e-18
0.0870313 -0.0254688 6.49595 -9.55019 76.3019 13.8596 1.17622e-18
0.0786719 -0.0244531 6.25555 -8.63509 124.43 83.2973 1.57322e-14
0.0751563 -0.0252344 4.26421 -5.51454 4.14941 12.7079 0.00580055
0.0644531 -0.0240625 -4.5383 -12.4094 39.7153 6.24649 4.80974e-20
0.0615625 -0.0248438 -4.80221 -12.6615 18.5516 6.24649 5.9615e-19
0.0497656 -0.0239844 -4.48622 17.944 109.147 63.348 2.87681e-11
0.0408594 -0.0251563 -4.64207 10.9691 107.18 33.4335 7.4655e-11
0.0357031 -0.025 -4.22978 10.1168 109.147 63.348 2.87681e-11
0.0208594 -0.0239063 -6.53114 9.44875 112.942 16.7312 5.54171e-11
0.0145313 -0.0235938 -5.33401 10.2873 113.249 13.7916 1.52449e-10
0.00234375 -0.0239063 -6.63058 9.6255 109.147 63.348 2.87681e-11
-0.000703125 -0.0225 -6.49556 8.36989 100.445 62.0191 4.83766e-11
-0.00804688 -0.0232812 -4.61332 10.5166 109.147 63.348 2.87681e-11
-0.0128906 -0.0211719 -6.34973 9.38704 112.942 17.0879 5.54171e-11
-0.0260937 -0.0213281 -3.7106 10.26 105.382 13.2156 2.39984e-11
-0.0130469 -0.0224219 -7.54554 12.6692 112.942 12.528 5.54171e-11
-0.0166406 -0.0244531 -4.80173 11.0704 112.942 14.6236 5.54171e-11
-0.00429688 -0.026875 -4.53494 10.2901 107.18 31.1222 7.4655e-11
0.00195312 -0.0240625 -3.75703 9.95978 107.658 11.4996 8.93713e-11
0.0164063 -0.0271094 -5.85274 11.4103 109.147 63.348 2.87681e-11
0.0214063 -0.0260156 -5.08003 10.7652 109.147 63.348 2.87681e-11
0.0340625 -0.0267187 -4.7681 10.8443 109.476 10.7012 4.19614e-11
0.0446094 -0.0276563 -5.9201 9.93645 109.147 63.348 2.87681e-11
0.0430469 -0.0272656 -5.99306 10.8233 107.18 13.2111 7.4655e-11
0.0589063 -0.0280469 -4.39788 8.70929 109.147 63.348 2.87681e-11
0.0604688 -0.0285156 -5.17545 10.8702 109.147 63.348 2.87681e-11
0.0722656 -0.0283594 -6.8227 10.5636 109.147 63.348 2.87681e-11
0.0809375 -0.0275 -5.11561 9.49102 107.18 13.2108 7.4655e-11
0.0797656 -0.0283594 -4.66768 10.6183 109.147 63.348 2.87681e-11
0.101094 -0.0291406 -4.75969 17.9434 109.147 63.348 2.87681e-11
0.103594 -0.0291406 -6.51602 10.2167 100.445 62.0191 4.83766e-11
0.115547 -0.029375 -6.17996 10.13 109.147 63.348 2.87681e-11
0.117969 -0.0284375 -6.98043 17.9448 107.18 12.7263 7.4655e-11
0.1325 -0.0296094 -4.19419 10.5744 100.445 62.0191 4.83766e-11
0.131484 -0.0283594 -6.31168 10.3722 109.476 9.83053 4.19614e-11
0.136328 -0.0310156 -3.96117 8.9118 109.147 63.348 2.87681e-11
0.153672 -0.0276563 -4.67168 10.8143 112.701 9.9942 5.33668e-11
0.16375 -0.0291406 -5.52999 9.81543 109.147 63.348 2.87681e-11
0.172891 -0.0296875 -6.4707 10.6364 109.147 63.348 2.87681e-11
0.177109 -0.0315625 -5.37092 10.2321 1.55804 21.8515 3.7677e-12
0.177734 -0.030625 4.55931 11.9587 93.0888 1.49601 0.0111069
0.197969 -0.0299219 -0.335744 1.66616 19.2799 14.608 0.00636747
0.198359 -0.0313281 -0.109143 0.451091 19.2451 14.7417 0.00625004
0.214141 -0.0311719 -0.103172 0.449582 19.268 14.8772 0.00602492
0.218125 -0.0320312 -0.103769 0.450495 19.0929 14.6718 0.00591282
0.232031 -0.031875 -0.106734 0.435913 19.1835 14.8835 0.00568288
0.235 -0.0328125 -0.107057 0.440586 19.2078 14.7821 0.00568575
0.245078 -0.0310937 -0.105491 0.433634 19.2831 14.8594 0.00573532
0.248203 -0.0332812 -0.109142 0.431534 19.2175 14.6006 0.00584228
0.267031 -0.0325 -0.109496 0.429659 19.2035 14.6594 0.00587025
0.268047 -0.0317969 -0.108285 0.42151 19.2538 14.8293 0.00645278
0.275859 -0.0335156 -0.103929 0.428185 19.3808 14.6827 0.00685456
0.284687 -0.0330469 -0.102961 0.419708 19.2911 14.7675 0.00725131
0.297109 -0.033125 -0.103827 0.412881 19.2651 14.6953 0.00786921
0.311484 -0.033125 -0.105912 0.423066 19.2748 14.7984 0.00833933
0.314531 -0.0344531 -0.107437 0.41261 19.3022 14.7057 0.00875813
0.323828 -0.0340625 -0.114321 0.425519 19.2679 14.7344 0.00902269
0.323203 -0.0340625 -0.117917 0.415444 19.3696 14.7817 0.00925521
0.3425 -0.0345312 -0.118854 0.412101 19.2713 14.6874 0.0093343
0.3375 -0.0342187 -0.120764 0.422845 19.3966 14.7324 0.00988509
0.348594 -0.0360938 -0.125795 0.409226 19.3743 14.64 0.00979941
0.355703 -0.0327344 -0.125219 0.408928 19.3639 14.6943 0.00987696
0.3725 -0.0332812 -0.12448 0.395784 19.2936 14.679 0.00998846
0.377891 -0.0357031 -0.127531 0.405701 19.3815 14.6494 0.0100414
0.388125 -0.0349219 -0.128278 0.407983 19.4284 14.6412 0.00990759
0.390234 -0.0327344 -0.12972 0.398266 19.2872 14.636 0.00979235
0.398125 -0.0375 -0.130472 0.401881 19.3665 14.5925 0.0100943
0.421484 -0.0342187 -0.131112 0.393287 19.2496 14.6516 0.00977563
0.414375 -0.0376563 -0.128935 0.398501 19.1826 14.5957 0.0100529
0.425391 -0.0357031 -0.129231 0.386774 19.3075 14.6121 0.00984692
0.433828 -0.0374219 -0.133078 0.392458 19.4491 14.668 0.0098942
0.439063 -0.0416406 -0.131077 0.381996 19.3264 14.6245 0.00971246
0.454375 -0.0394531 -0.131468 0.384241 19.2424 14.4942 0.009812
0.459766 -0.0385156 -0.133013 0.377831 19.308 14.5436 0.00938943
0.465625 -0.038125 -0.130296 0.378863 19.2452 14.5105 0.00954087
0.475703 -0.0391406 -0.131594 0.374717 19.1804 14.5456 0.0094625
0.489297 -0.0416406 -0.134534 0.369968 19.2722 14.5411 0.00941899
0.494922 -0.04125 -0.133078 0.36328 19.1725 14.4471 0.00919487
0.497266 -0.0421094 -0.130639 0.366041 19.209 14.369 0.00926378
0.504141 -0.0422656 -0.136269 0.359624 19.0745 14.4049 0.00913169
0.520625 -0.0407812 -0.131508 0.350033 19.107 14.4229 0.0089702
0.54 -0.0403906 -0.135292 0.350268 19.2789 14.4717 0.00884209
0.534609 -0.0400781 -0.132214 0.351491 19.1152 14.4217 0.00878412
0.545156 -0.0383594 -0.136783 0.341099 19.1671 14.4078 0.00890666
0.550234 -0.0420312 -0.13451 0.342912 19.1321 14.4437 0.00873569
0.56375 -0.0403125 -0.138473 0.341704 19.0334 14.4154 0.00867716
0.560078 -0.0417969 -0.142727 0.34197 19.1938 14.39 0.00864674
0.573984 -0.0413281 -0.143147 0.338465 19.1171 14.4328 0.00885964
0.587344 -0.0466406 -0.142412 0.335022 19.1089 14.4363 0.00854834
0.590547 -0.0475781 -0.145691 0.32811 19.0681 14.4475 0.0086458
0.599609 -0.0527344 -0.145862 0.325792 19.0045 14.3315 0.0085686
0.614453 -0.0582031 -0.147621 0.334485 19.1191 14.3661 0.00851331
0.615 -0.0702344 -0.146588 0.331471 19.0701 14.3903 0.00828586
0.623594 -0.0792188 -0.146207 0.329164 19.0475 14.3832 0.00842117
0.634219 -0.101172 -0.143495 0.32449 18.873 14.4102 0.00853568
0.645625 -0.131328 -0.15212 0.332546 19.0414 14.3188 0.00818744
0.651719 -0.162734 -0.150273 0.32699 19.133 14.3245 0.0085198
0.653828 -0.206406 -0.150822 0.321653 18.942 14.3183 0.00842164
0.662266 -0.258672 -0.153254 0.322364 19.0627 14.3985 0.00856689
0.656406 -0.202891 -0.152475 0.319622 19.2094 14.373 0.00847073
0.652031 -0.166016 -0.156152 0.32889 19.0237 14.3539 0.00853082
0.644609 -0.134609 -0.153817 0.320557 19.027 14.5006 0.00840896
0.628516 -0.104297 -0.155658 0.325161 19.0583 14.2809 0.0083752
0.62 -0.0871094 -0.152121 0.32531 19.0591 14.3152 0.00843932
0.610391 -0.0708594 -0.152632 0.324922 19.1582 14.1764 0.00842761
0.610078 -0.0607813 -0.15617 0.328486 19.033 14.297 0.00822086
0.604297 -0.0539844 -0.154148 0.328331 19.0749 14.4085 0.00849364
0.594922 -0.0470313 -0.154778 0.329429 19.0414 14.2338 0.00831227
0.584297 -0.0432813 -0.155491 0.3283 19.0902 14.2839 0.00837752
0.574766 -0.0383594 -0.152414 0.322417 19.1176 14.5006 0.00841707
0.566406 -0.0383594 -0.154682 0.333273 19.2047 14.3891 0.0086634
0.552031 -0.0339062 -0.155279 0.327302 19.1961 14.4822 0.00859905
0.550312 -0.0332812 -0.153076 0.327058 19.0917 14.304 0.00846046
0.549609 -0.0308594 -0.15453 0.330225 19.065 14.3043 0.00855168
0.539844 -0.03375 -0.154305 0.333963 19.0019 14.4118 0.00852219
0.530156 -0.0315625 -0.153802 0.340514 19.0518 14.3977 0.00867033
0.511875 -0.0325781 -0.152784 0.332659 19.0403 14.4051 0.0086191
0.507969 -0.031875 -0.15402 0.33175 19.1301 14.2949 0.00866678
0.489766 -0.0310156 -0.15309 0.338806 19.1653 14.4839 0.00858005
0.487734 -0.0296875 -0.152149 0.331977 19.0799 14.3592 0.00877404
0.484922 -0.0288281 -0.150482 0.340302 19.0422 14.4246 0.00903067
0.478594 -0.0315625 -0.152879 0.338257 19.0933 14.5163 0.00882144
0.470703 -0.0307031 -0.151833 0.33924 19.1999 14.457 0.00890977
0.463047 -0.0305469 -0.152256 0.352011 19.1714 14.3614 0.00917521
0.454063 -0.0297656 -0.155597 0.347431 19.3178 14.5998 0.00924762
0.443437 -0.0285938 -0.152022 0.349996 19.2953 14.4953 0.00888649
0.439297 -0.0298438 -0.152388 0.350383 19.172 14.4297 0.00896352
0.428594 -0.0305469 -0.152316 0.349969 19.2002 14.4485 0.00908422
0.419219 -0.0279688 -0.149697 0.349105 19.2809 14.5563 0.00912973
0.409844 -0.029375 -0.14928 0.353944 19.3499 14.5144 0.0090273
0.399141 -0.02875 -0.147348 0.352576 19.1915 14.5785 0.00887063
0.393672 -0.0266406 -0.147961 0.362507 19.1906 14.5721 0.00917593
0.386484 -0.0289844 -0.146044 0.363307 19.1966 14.5163 0.00899931
0.371406 -0.0298438 -0.144779 0.360433 19.2655 14.5139 0.00908234
0.369531 -0.0290625 -0.138517 0.361741 19.2303 14.554 0.00936733
0.357969 -0.0301562 -0.146294 0.365153 19.224 14.4611 0.0093377
0.356563 -0.0300781 -0.140451 0.368487 19.1527 14.4765 0.00914631
0.335547 -0.0296094 -0.142276 0.368489 19.2056 14.5613 0.00908717
0.333437 -0.0296875 -0.137298 0.375428 19.2342 14.5054 0.00945671
0.323672 -0.0289844 -0.144189 0.37515 19.2491 14.6603 0.00917644
0.320312 -0.0301562 -0.140089 0.371594 19.3474 14.3873 0.00923575
0.309922 -0.0270312 -0.138244 0.378921 19.2812 14.604 0.00923444
0.305078 -0.02875 -0.136765 0.384278 19.2367 14.5169 0.00929648
0.300781 -0.0266406 -0.137308 0.385867 19.297 14.6431 0.00912951
0.286875 -0.0282031 -0.133664 0.382342 19.321 14.6417 0.00890003
0.280156 -0.0255469 -0.130859 0.380864 19.1595 14.6041 0.00867974
0.268437 -0.0252344 -0.130234 0.38558 19.335 14.6733 0.00878105
0.256484 -0.0250781 -0.132684 0.391264 19.2786 14.6114 0.00876733
0.255078 -0.0257813 -0.127137 0.391083 19.32 14.6405 0.00877667
0.249297 -0.0264062 -0.127828 0.391299 19.2756 14.593 0.00887076
0.242188 -0.0246094 -0.129998 0.390564 19.2255 14.5739 0.00874258
0.227188 -0.0271094 -0.129326 0.390663 19.3363 14.7015 0.00893425
0.224219 -0.0265625 -0.125801 0.39968 19.3654 14.6522 0.00879714
0.209531 -0.0259375 -0.124651 0.403256 19.4147 14.7022 0.00881096
0.199297 -0.0272656 -0.123449 0.404914 19.3193 14.6112 0.00871071
0.191406 -0.0232812 -0.121076 0.403368 19.2909 14.7233 0.00870419
0.185391 -0.0239844 -0.126391 0.410272 19.4026 14.7871 0.00867477
0.177109 -0.0259375 -0.123836 0.41408 19.2826 14.7016 0.00887031
0.170859 -0.0246875 -0.124462 0.408362 19.2175 14.697 0.00891623
0.164766 -0.0265625 -0.12141 0.411247 19.2565 14.7391 0.0089717
0.149688 -0.0263281 -0.124439 0.420878 19.1848 14.7344 0.00894779
0.151797 -0.02375 -0.121985 0.42781 19.3727 14.8336 0.00880592
0.139609 -0.025625 -0.119165 0.427823 19.3145 14.6968 0.00886929
0.125547 -0.0260937 -0.124125 0.434666 19.3912 14.8338 0.00888286
0.123438 -0.0242969 -0.120698 0.433479 19.2964 14.7813 0.00881583
0.113359 -0.0251563 -0.118504 0.431328 19.2137 14.7637 0.00901587
0.109219 -0.0252344 -0.117114 0.441512 19.3687 14.8053 0.00874495
0.100547 -0.0255469 -0.114503 0.443185 19.268 14.8569 0.00883783
0.08875 -0.0253125 -0.116863 0.444822 19.341 14.8123 0.0091302
0.0782812 -0.0255469 -0.116465 0.448929 19.3451 14.8805 0.00931382
0.0738281 -0.0251563 -0.11346 0.458277 19.4211 14.8454 0.00901851
0.0680469 -0.0245313 -0.113016 0.450347 19.3864 14.8451 0.0090794
0.0575 -0.0258594 -0.110453 0.456709 19.2713 14.784 0.00911483
0.05 -0.0235938 -0.111721 0.460448 19.3315 14.8813 0.00911298
0.0392188 -0.0251563 -0.11183 0.459818 19.3573 14.9732 0.00904883
0.0289844 -0.0246094 -0.109081 0.464581 19.3348 14.8833 0.00881066
0.0210156 -0.0245313 -0.109581 0.465226 19.2958 14.8282 0.00908985
0.0190625 -0.0221875 -0.110649 0.474344 19.2517 14.9298 0.00888294
0.00359375 -0.023125 -0.10899 0.478363 19.238 14.9935 0.00879353
0.0053125 -0.0219531 -0.107423 0.479831 19.1888 14.8591 0.00883813
-0.0117969 -0.0234375 -0.10688 0.487287 19.3459 14.8774 0.0089303
-0.0220312 -0.0247656 -0.104401 0.484991 19.2954 14.9535 0.00916813
-0.0309375 -0.0241406 -0.0996254 0.487226 19.1742 14.9636 0.0090368
-0.0178906 -0.0245313 -0.101736 0.484646 19.23 14.9925 0.00887665
-0.00210938 -0.0252344 -0.0993976 0.483595 19.2476 14.973 0.00871733
0.00140625 -0.0261719 -0.103775 0.49308 19.365 15.0236 0.0087902
0.00742188 -0.0252344 -0.103451 0.485405 19.3953 14.9269 0.00898936
0.009375 -0.0267187 -0.0960794 0.48563 19.0914 14.9661 0.00878843
0.0215625 -0.0264844 -0.102435 0.4922 19.2627 14.9581 0.00890721
0.0314063 -0.028125 -0.102061 0.481628 19.2478 14.9677 0.00886315
0.0401562 -0.0253906 -0.102278 0.481249 19.3892 15.0009 0.00908933
0.0426562 -0.0275781 -0.0974621 0.483509 19.2272 15.0298 0.00889871
0.0515625 -0.0277344 -0.0996539 0.489853 19.267 15.0337 0.00884832
0.0650781 -0.0282031 -0.100934 0.486469 19.3598 14.9355 0.0093199
0.07125 -0.0274219 -0.0970361 0.476677 19.436 14.9611 0.0091641
0.0760156 -0.0282031 -0.100801 0.47063 19.3255 14.8546 0.00913715
0.0888281 -0.0271094 -0.101267 0.471364 19.3783 14.9119 0.00920721
0.0980469 -0.029375 -0.0983153 0.470265 19.3609 14.9356 0.00906124
0.105313 -0.0301562 -0.100985 0.476184 19.2924 14.8991 0.00903974
0.114062 -0.0286719 -0.102342 0.471102 19.3002 14.9507 0.00893364
0.113906 -0.0275 -0.103008 0.466232 19.2291 14.7975 0.00902161
0.131328 -0.0296875 -0.106892 0.46283 19.253 14.8487 0.00871569
0.130312 -0.0291406 -0.103466 0.461659 19.3513 14.9063 0.00907241
0.145937 -0.0304687 -0.106894 0.461115 19.3288 14.8005 0.00896216
0.152891 -0.0291406 -0.102433 0.458781 19.3562 14.831 0.00877424
0.158438 -0.0278906 -0.104182 0.452018 19.275 15.0281 0.00917094
0.172344 -0.0301562 -0.105587 0.458242 19.3036 14.8666 0.00927624
0.180703 -0.0302344 -0.102444 0.448972 19.3524 14.9111 0.00917903
0.178516 -0.0294531 -0.105388 0.452316 19.2425 14.7694 0.00910993
0.194297 -0.0282813 -0.106759 0.445042 19.3237 14.9507 0.00908581
0.200156 -0.0303906 -0.106213 0.447121 19.4026 14.9156 0.00919108
0.204609 -0.0317188 -0.108175 0.444875 19.2612 14.8677 0.00918974
0.216641 -0.0308594 -0.107247 0.440571 19.2885 14.8788 0.0091816
0.226484 -0.0307031 -0.10606 0.439729 19.3112 14.8524 0.0092513
0.237813 -0.0311719 -0.107397 0.430926 19.2819 14.7075 0.00899612
0.249844 -0.0319531 -0.110754 0.437869 19.2555 14.7471 0.00899406
0.244531 -0.0326562 -0.109791 0.433555 19.2536 14.6961 0.00891671
0.256406 -0.0317969 -0.112436 0.438931 19.3841 14.7831 0.0089997
0.274375 -0.0333594 -0.109974 0.430732 19.2169 14.8379 0.00891345
0.277031 -0.0344531 -0.110915 0.426885 19.317 14.7625 0.00911345
0.284375 -0.0329687 -0.109459 0.428844 19.2158 14.7315 0.00903685
0.291172 -0.0325 -0.113887 0.423128 19.2726 14.6831 0.00891342
0.307344 -0.0308594 -0.111114 0.421239 19.3696 14.8261 0.00898372
0.309844 -0.0346094 -0.112901 0.42176 19.292 14.718 0.00894532
0.313594 -0.03375 -0.113337 0.414234 19.3812 14.8418 0.00902731
0.323047 -0.0346094 -0.113673 0.421105 19.3203 14.7785 0.00920873
0.337734 -0.0353906 -0.114751 0.412783 19.3048 14.6246 0.00898332
0.343359 -0.0339844 -0.11345 0.416074 19.2869 14.7284 0.00918965
0.346641 -0.0361719 -0.116485 0.410292 19.2896 14.7686 0.00900622
0.356563 -0.0342187 -0.112987 0.409996 19.3036 14.6772 0.00917638
0.363516 -0.0352344 -0.112085 0.3973 19.3402 14.6486 0.0093029
0.369219 -0.033125 -0.116351 0.40545 19.3557 14.7962 0.00893472
0.372734 -0.0314844 -0.116347 0.409798 19.3901 14.7166 0.00906044
0.366875 -0.0347656 -0.117157 0.407191 19.2878 14.6992 0.00892264
0.368125 -0.0326562 -0.115878 0.400453 19.3181 14.6473 0.00915958
0.36625 -0.0339844 -0.115576 0.399149 19.4002 14.6297 0.00930407
0.370547 -0.03375 -0.115368 0.403621 19.3265 14.6603 0.0091741
0.368203 -0.0335937 -0.107401 0.398851 19.2218 14.6244 0.0082552
0.370391 -0.0326562 -0.110488 0.391884 19.4265 14.6203 0.00833791
0.364766 -0.0303906 -0.112052 0.394075 19.3699 14.6174 0.00828016
0.372812 -0.0317969 -0.109437 0.395702 19.2699 14.6166 0.00822965
0.366719 -0.0301562 -0.112679 0.401901 19.3605 14.6202 0.00826189
0.373594 -0.0338281 -0.112814 0.392324 19.3493 14.6574 0.00822614
0.372188 -0.0327344 -0.11264 0.394955 19.2368 14.6996 0.00816541
0.374531 -0.0329687 -0.112548 0.392126 19.4289 14.5521 0.00826995
0.363281 -0.0335937 -0.112976 0.394331 19.3968 14.6203 0.00825373
0.366641 -0.031875 -0.11338 0.389258 19.3653 14.717 0.00833248
0.372812 -0.0335937 -0.109718 0.393119 19.3714 14.61 0.00818481
0.364922 -0.0325781 -0.114634 0.39561 19.2515 14.6969 0.00840644
0.369219 -0.0303125 -0.11443 0.38954 19.3368 14.682 0.00835822
0.368359 -0.0320312 -0.111002 0.389022 19.3158 14.6464 0.0083336
0.371406 -0.0339062 -0.114449 0.394014 19.2729 14.6952 0.00826976
0.372734 -0.0303125 -0.114579 0.392435 19.3792 14.6883 0.00831858
0.379063 -0.0325781 -0.110266 0.3972 19.3185 14.602 0.00828313
0.374922 -0.0339062 -0.114262 0.395807 19.3502 14.6539 0.00827755
0.369453 -0.0339062 -0.112922 0.391824 19.3469 14.6265 0.00835603
0.364141 -0.0314063 -0.112665 0.394829 19.1506 14.5542 0.00853404
0.3675 -0.0315625 -0.112514 0.38742 19.2347 14.6341 0.00822415
0.363984 -0.0325781 -0.11236 0.387769 19.3226 14.7034 0.00838161
0.368672 -0.0340625 -0.115799 0.391372 19.4284 14.6583 0.00846846
0.371328 -0.0326562 -0.114572 0.394155 19.3095 14.6128 0.00817543
0.370703 -0.0335937 -0.113637 0.390809 19.3314 14.5667 0.00837364
0.373359 -0.0330469 -0.11371 0.385637 19.2889 14.6626 0.00826316
0.369688 -0.0317969 -0.114209 0.393025 19.2099 14.6504 0.00844159
0.371172 -0.0298438 -0.11553 0.393677 19.3408 14.5366 0.00816757
0.370781 -0.0303125 -0.116181 0.393978 19.3536 14.5998 0.00827918
0.365391 -0.0329687 -0.114323 0.38387 19.354 14.7038 0.00859901
0.374609 -0.0332812 -0.114368 0.396724 19.3047 14.5266 0.00862082
0.369766 -0.034375 -0.114273 0.386723 19.3688 14.6473 0.00847341
0.366641 -0.0308594 -0.118534 0.389549 19.1806 14.6449 0.00859883
0.369219 -0.031875 -0.115597 0.390924 19.2767 14.5951 0.00842521
0.362422 -0.0319531 -0.114021 0.388154 19.3332 14.6714 0.00852963
0.376953 -0.0323437 -0.116886 0.390577 19.2652 14.6423 0.00861491
0.364219 -0.03375 -0.115108 0.388739 19.325 14.6494 0.00862494
0.368203 -0.0324219 -0.11601 0.392013 19.2461 14.5797 0.0086483
0.36625 -0.0299219 -0.11593 0.387897 19.3591 14.6558 0.00845463
0.367734 -0.0314063 -0.113082 0.388174 19.3049 14.5992 0.00868715
0.365625 -0.0319531 -0.115229 0.385967 19.3597 14.6651 0.00850594
0.365859 -0.0309375 -0.116569 0.391228 19.2877 14.5797 0.00854853
0.371094 -0.0300781 -0.117019 0.390417 19.2015 14.6211 0.00864621
0.365234 -0.0295313 -0.116312 0.389258 19.3664 14.6004 0.00859486
0.373281 -0.0302344 -0.115709 0.393635 19.2794 14.5613 0.0083533
0.372578 -0.0334375 -0.114621 0.384984 19.4614 14.4965 0.0085787
0.37 -0.0315625 -0.11511 0.38876 19.3947 14.6298 0.00855823
0.385156 -0.0303906 -0.115509 0.388311 19.3645 14.6854 0.00844312
0.369063 -0.0304687 -0.115783 0.38854 19.2674 14.598 0.00862216
0.370391 -0.0332031 -0.116699 0.383055 19.4422 14.6108 0.00865653
0.364063 -0.0338281 -0.117213 0.387882 19.1433 14.6448 0.0083546
0.3675 -0.0324219 -0.116484 0.386396 19.2509 14.6707 0.00851117
0.370781 -0.0332812 -0.114644 0.381001 19.3449 14.6807 0.0085739
0.369141 -0.0301562 -0.11651 0.396578 19.4168 14.6266 0.00845583
0.368516 -0.0330469 -0.115735 0.391643 19.2515 14.5404 0.00849983
0.366953 -0.03375 -0.116562 0.391935 19.3372 14.6073 0.00839651
0.371172 -0.0328125 -0.114448 0.391929 19.3288 14.6808 0.00862642
0.36125 -0.03125 -0.115774 0.385106 19.2377 14.7005 0.00855026
0.374063 -0.0339844 -0.11599 0.387376 19.2227 14.6789 0.00838952
0.367812 -0.0316406 -0.117644 0.39302 19.3136 14.6522 0.00861312
0.374609 -0.0314063 -0.115618 0.385494 19.3434 14.6804 0.00842426
0.362266 -0.0332031 -0.115887 0.386734 19.3603 14.6195 0.00849837
0.370703 -0.0323437 -0.116878 0.386043 19.1796 14.6927 0.00860404
0.378125 -0.0321875 -0.117333 0.387601 19.2916 14.4862 0.00850215
0.365859 -0.0330469 -0.117582 0.38257 19.2705 14.6368 0.00857883
0.365938 -0.03125 -0.116783 0.385774 19.3066 14.5229 0.00847409
0.363047 -0.0330469 -0.117055 0.387028 19.2406 14.6277 0.00851614
0.36375 -0.0317188 -0.117411 0.389799 19.2479 14.5529 0.00835974
0.371172 -0.0317969 -0.117759 0.386214 19.2685 14.6745 0.00834801
0.365312 -0.0326562 -0.116275 0.384985 19.3862 14.5039 0.00844861
0.370547 -0.0329687 -0.112755 0.387959 19.2517 14.6538 0.00839099
0.367656 -0.0308594 -0.114725 0.382381 19.2744 14.6196 0.00858221
0.372578 -0.0294531 -0.116336 0.383683 19.2473 14.5644 0.00857988
0.372344 -0.0316406 -0.117623 0.386991 19.4508 14.5743 0.00833235
0.374453 -0.0322656 -0.115594 0.388376 19.5288 14.6726 0.00852994
0.368281 -0.0325781 -0.117971 0.385501 19.3749 14.6532 0.00863881
0.365 -0.031875 -0.117276 0.383698 19.3442 14.6361 0.00847377
0.366953 -0.0314063 -0.11816 0.388999 19.2556 14.6766 0.00849081
0.372656 -0.0324219 -0.11813 0.385709 19.2921 14.6924 0.00846872
0.3725 -0.0297656 -0.11603 0.384532 19.2949 14.5677 0.00853689
0.376328 -0.0328125 -0.114445 0.385627 19.2234 14.6314 0.00843008
0.365469 -0.03125 -0.117059 0.39035 19.304 14.6963 0.00862295
0.372891 -0.0322656 -0.118012 0.38664 19.2677 14.6604 0.00860633
0.365859 -0.0321094 -0.12027 0.387573 19.1717 14.6976 0.00885522
0.36875 -0.0323437 -0.119534 0.39034 19.4496 14.7079 0.00872763
0.366641 -0.0328125 -0.115426 0.384001 19.3515 14.6688 0.00853152
0.375781 -0.0327344 -0.121138 0.385819 19.2338 14.5937 0.00873535
0.375156 -0.033125 -0.117276 0.384588 19.3775 14.5858 0.00862504
0.368125 -0.0321875 -0.120245 0.385577 19.3335 14.5424 0.00877024