File: scripts/CV_XRD/data/ascii/I20180835_229_CV_XRD.dat
# I20180835 #229 CV with XRD
# Potential / V, Current Density / mA/cm^2, Strain ip / %, Strain oop / %, d ip / nm, d oop / nm, Intensity (area ip)
0.366484 -0.0299219 -0.0901979 0.430186 19.4434 14.7866 0.0121637
0.371328 -0.0313281 -0.0894594 0.432961 19.3931 14.7974 0.0119616
0.366875 -0.0310937 -0.0912752 0.430885 19.3854 14.9142 0.0121517
0.378906 -0.0334375 -0.0916356 0.430077 19.4798 14.8145 0.0120551
0.386563 -0.0350781 -0.0903962 0.430233 19.3901 14.8121 0.0119962
0.394297 -0.0321094 -0.0925657 0.427753 19.4513 14.8361 0.0119157
0.404922 -0.0350781 -0.0896298 0.419525 19.4035 14.9386 0.0122991
0.409922 -0.0344531 -0.0900983 0.424741 19.4707 14.9033 0.0122742
0.417891 -0.0355469 -0.0923852 0.419608 19.4213 14.7217 0.0122862
0.421328 -0.0342969 -0.0883815 0.410347 19.4571 14.841 0.0121636
0.434375 -0.0360156 -0.0901936 0.419001 19.4311 14.8111 0.0121981
0.457188 -0.0374219 -0.0928488 0.417842 19.5219 14.7905 0.0125143
0.455156 -0.0373438 -0.0896268 0.415212 19.4784 14.8239 0.0121589
0.458125 -0.0354688 -0.0935833 0.409429 19.3356 14.7999 0.0122871
0.465859 -0.0396094 -0.0930658 0.407366 19.4527 14.7927 0.012189
0.477813 -0.036875 -0.0945824 0.40734 19.412 14.7322 0.0123391
0.494766 -0.0396094 -0.0966512 0.405283 19.3553 14.7155 0.0122824
0.498203 -0.0392188 -0.0951689 0.394036 19.5088 14.6681 0.0120932
0.510234 -0.038125 -0.0972142 0.392084 19.3411 14.6993 0.0121518
0.511328 -0.0386719 -0.0972247 0.390108 19.3607 14.6976 0.0121056
0.513281 -0.0399219 -0.0982068 0.3931 19.4346 14.7069 0.0121746
0.532109 -0.0404687 -0.0975816 0.387681 19.3247 14.7337 0.0120291
0.535625 -0.0390625 -0.099113 0.378542 19.3678 14.6372 0.0119761
0.552656 -0.0404687 -0.101618 0.388807 19.2907 14.634 0.0120724
0.549687 -0.0438281 -0.100624 0.383948 19.239 14.6357 0.0116172
0.561953 -0.0411719 -0.100005 0.375924 19.2189 14.6259 0.0117914
0.567344 -0.0440625 -0.101306 0.370146 19.2361 14.6046 0.011619
0.576406 -0.0496094 -0.100965 0.376786 19.3093 14.7075 0.011844
0.587422 -0.0548438 -0.101201 0.375549 19.1401 14.6399 0.0115934
0.598281 -0.0646875 -0.102208 0.373048 19.1777 14.5509 0.0119484
0.604141 -0.0807031 -0.102609 0.367951 19.2449 14.5616 0.011889
0.610703 -0.098125 -0.100178 0.365235 19.2255 14.54 0.0117845
0.623203 -0.122344 -0.101865 0.364325 19.2504 14.5505 0.0117921
0.631953 -0.157656 -0.101067 0.364832 19.3316 14.6383 0.0119632
0.639453 -0.19375 -0.103367 0.362451 19.1664 14.5091 0.0115871
0.649844 -0.245156 -0.101842 0.363783 19.2521 14.5633 0.0116036
0.657656 -0.298594 -0.108205 0.364399 19.253 14.6095 0.011839
0.668047 -0.357813 -0.107139 0.3633 19.3689 14.609 0.0117331
0.663906 -0.319219 -0.109007 0.366833 19.1932 14.5829 0.0117791
0.655859 -0.266953 -0.10702 0.359513 19.2176 14.5292 0.0117726
0.643516 -0.219062 -0.107933 0.365246 19.3588 14.5608 0.011727
0.63125 -0.179531 -0.109028 0.369186 19.2394 14.5435 0.0117977
0.614922 -0.143672 -0.109298 0.362207 19.3155 14.6138 0.0115682
0.619688 -0.115391 -0.108618 0.362801 19.203 14.4892 0.0115081
0.605547 -0.0954688 -0.108629 0.366595 19.1928 14.5268 0.0115605
0.599766 -0.0771094 -0.108368 0.366052 19.2246 14.547 0.0118537
0.584531 -0.0640625 -0.106485 0.36654 19.2566 14.5777 0.0117075
0.5825 -0.0532031 -0.107848 0.364852 19.2346 14.6481 0.0119395
0.578828 -0.043125 -0.110172 0.364258 19.1902 14.5067 0.0116465
0.563047 -0.0416406 -0.10935 0.370042 19.2931 14.5923 0.0116815
0.558516 -0.0366406 -0.108182 0.367702 19.2408 14.6464 0.0118423
0.555 -0.03625 -0.109235 0.367567 19.2148 14.564 0.0116511
0.541328 -0.0346875 -0.10709 0.369812 19.2905 14.5633 0.0118317
0.535 -0.0345312 -0.107857 0.365103 19.2459 14.5567 0.0116809
0.527422 -0.0351562 -0.106529 0.371273 19.1794 14.6373 0.0119252
0.523672 -0.0334375 -0.103643 0.368789 19.2695 14.5691 0.0118219
0.506406 -0.0328125 -0.106394 0.372489 19.3411 14.5718 0.0118684
0.497109 -0.0319531 -0.106336 0.371572 19.2834 14.6117 0.011821
0.497031 -0.0320312 -0.107677 0.378165 19.3629 14.6596 0.0118238
0.489531 -0.0307812 -0.105165 0.372917 19.3696 14.6718 0.0117312
0.474219 -0.03 -0.106982 0.369575 19.3084 14.6151 0.011836
0.464609 -0.0300781 -0.104072 0.378995 19.2603 14.6479 0.0121475
0.456172 -0.0291406 -0.106047 0.3785 19.3221 14.6949 0.0117721
0.455625 -0.0309375 -0.105159 0.383892 19.3552 14.6806 0.0119099
0.447578 -0.0295313 -0.103577 0.385585 19.3113 14.6017 0.0118581
0.435469 -0.0307812 -0.105609 0.385088 19.32 14.6837 0.0119373
0.429688 -0.0310156 -0.104272 0.389534 19.2579 14.6868 0.0118348
0.416094 -0.0305469 -0.103809 0.385253 19.3391 14.6945 0.0121354
0.409219 -0.0302344 -0.104849 0.388207 19.3328 14.657 0.0121271
0.402734 -0.0307031 -0.10226 0.388551 19.402 14.7351 0.012059
0.389688 -0.0299219 -0.102665 0.395007 19.3731 14.6878 0.0121642
0.380156 -0.0309375 -0.101519 0.399309 19.3873 14.7375 0.0120065
0.366797 -0.0289063 -0.102201 0.405167 19.3772 14.7205 0.0121931
0.374375 -0.0292969 -0.103823 0.405468 19.4358 14.6462 0.0120928
0.357266 -0.0316406 -0.105251 0.403971 19.361 14.763 0.0121926
0.344062 -0.0286719 -0.101396 0.398317 19.3836 14.8031 0.0119886
0.343125 -0.0300781 -0.101142 0.405728 19.3809 14.7898 0.0119942
0.337734 -0.0278906 -0.101137 0.410281 19.3294 14.7952 0.0120827
0.332422 -0.0288281 -0.0983301 0.414714 19.378 14.8025 0.0121274
0.313828 -0.0296875 -0.0994605 0.408607 19.4236 14.8568 0.0120238
0.312734 -0.0307031 -0.0996723 0.417026 19.4094 14.8504 0.0121489
0.305703 -0.0303906 -0.100046 0.417649 19.4421 14.787 0.012216
0.291641 -0.0292969 -0.097102 0.420554 19.4691 14.8292 0.0123563
0.287031 -0.0286719 -0.0979884 0.422441 19.3094 14.7691 0.0119288
0.280938 -0.0297656 -0.0955955 0.413048 19.4121 14.7994 0.0121864
0.272656 -0.03 -0.0953299 0.422334 19.3786 14.8055 0.0119454
0.256484 -0.0290625 -0.0973134 0.42107 19.4185 14.8334 0.0120697
0.253203 -0.0282031 -0.095905 0.427788 19.4383 14.8199 0.0121405
0.25 -0.0292969 -0.096609 0.427367 19.4134 14.8889 0.0120325
0.241563 -0.0269531 -0.0976927 0.431977 19.3529 14.8548 0.0121049
0.228672 -0.0269531 -0.0992175 0.43274 19.4148 14.8721 0.0120548
0.218125 -0.0263281 -0.0970601 0.430889 19.2572 14.8657 0.0120961
0.210859 -0.0260156 -0.0996212 0.431221 19.3772 14.8834 0.0120718
0.209687 -0.0284375 -0.098788 0.439476 19.3891 14.8924 0.0119739
0.189375 -0.0253906 -0.0978423 0.437855 19.3165 14.8913 0.0122866
0.180547 -0.0272656 -0.099425 0.442589 19.3425 14.86 0.012179
0.185 -0.0257813 -0.0971655 0.445552 19.3371 14.8971 0.0121525
0.167813 -0.0257813 -0.0971043 0.446041 19.4247 14.8473 0.0123307
0.159766 -0.0263281 -0.0976188 0.448486 19.3373 14.9524 0.0120303
0.15125 -0.0264844 -0.0942898 0.449955 19.3715 14.9576 0.0122133
0.138828 -0.0253125 -0.0966883 0.450888 19.4281 14.8989 0.0122664
0.13 -0.0253125 -0.0953529 0.457153 19.4698 14.9447 0.0122892
0.13125 -0.0247656 -0.0940341 0.450667 19.4285 14.9488 0.0119929
0.111563 -0.0246875 -0.0953168 0.459148 19.458 14.9508 0.0121483
0.108203 -0.0235938 -0.095862 0.463122 19.3919 14.8945 0.0121536
0.103359 -0.0249219 -0.0929931 0.462182 19.3691 15.0001 0.0122766
0.0888281 -0.0252344 -0.0951133 0.466151 19.4048 14.9309 0.0121969
0.09 -0.0224219 -0.0967366 0.469824 19.4108 14.9539 0.0123366
0.0790625 -0.0251563 -0.0951002 0.470693 19.4059 14.9326 0.0122942
0.0725 -0.02375 -0.0939689 0.471396 19.3927 15.0181 0.0122268
0.0671094 -0.0251563 -0.0923805 0.474885 19.3887 15.0452 0.0122615
0.0510938 -0.02375 -0.0943284 0.475904 19.3632 14.9428 0.0123519
0.0435938 -0.0235938 -0.0912171 0.473589 19.4152 14.9924 0.0121692
0.0384375 -0.0242188 -0.0888908 0.481774 19.4012 14.9616 0.0122094
0.0294531 -0.0241406 -0.0924974 0.486152 19.3165 14.9586 0.0120959
0.0209375 -0.0221875 -0.0928132 0.483359 19.3743 15.0004 0.0121511
0.0121875 -0.0236719 -0.0905936 0.494254 19.3395 14.9745 0.0118886
-0.00125 -0.0236719 -0.0919224 0.495422 19.2655 15.0447 0.0120575
-0.00265625 -0.0225781 -0.0893518 0.499669 19.3633 14.9712 0.0119622
-0.00710938 -0.0221094 -0.0871458 0.502992 19.3193 15.0446 0.0120553
-0.0175781 -0.0230469 -0.0899968 0.505515 19.2931 15.1368 0.0121423
-0.0235156 -0.0228125 -0.0875573 0.503815 19.3487 15.0864 0.0120495
-0.0146875 -0.0219531 -0.0873851 0.50644 19.38 15.1221 0.0117849
-0.0040625 -0.024375 -0.0877054 0.511525 19.4227 15.0715 0.0123374
0.00101563 -0.0239844 -0.0872948 0.509919 19.3338 15.1281 0.0119366
0.0164063 -0.0265625 -0.0869255 0.505299 19.3803 15.0012 0.0118845
0.0210938 -0.0253906 -0.0851231 0.508318 19.3638 15.0981 0.0118143
0.0257031 -0.0253125 -0.0852181 0.512133 19.327 15.0595 0.0118587
0.0421094 -0.0271094 -0.0835163 0.50618 19.352 15.0495 0.0120732
0.0496094 -0.0255469 -0.0845425 0.505893 19.4187 15.0232 0.0121973
0.0607813 -0.026875 -0.0860036 0.50036 19.3768 15.0182 0.0120225
0.0685156 -0.025625 -0.0864742 0.50071 19.3618 15.0219 0.0120977
0.066875 -0.02625 -0.087071 0.504695 19.3962 15.1233 0.0120072
0.0807031 -0.0282813 -0.0886121 0.500164 19.4555 15.1015 0.0121399
0.094375 -0.0282813 -0.0866783 0.501168 19.3934 14.9982 0.0122428
0.100156 -0.0284375 -0.0866054 0.496338 19.3364 15.0295 0.0119956
0.108906 -0.028125 -0.0885406 0.492838 19.446 15.1037 0.0119349
0.11125 -0.0286719 -0.0868017 0.48844 19.3818 15.0534 0.0121676
0.117422 -0.0292188 -0.0878856 0.488337 19.4198 15.1437 0.0119141
0.134453 -0.0302344 -0.0871314 0.498297 19.4217 14.9999 0.0120914
0.138125 -0.0308594 -0.0853316 0.488085 19.4686 15.0277 0.012132
0.144609 -0.0300781 -0.08625 0.490838 19.4173 15.0314 0.0119662
0.164297 -0.0304687 -0.0874331 0.490032 19.393 15.0441 0.0119886
0.162656 -0.0307031 -0.0865419 0.481587 19.4624 14.9683 0.011951
0.178437 -0.0309375 -0.0877979 0.486106 19.3089 15.0606 0.0120699
0.174609 -0.031875 -0.083856 0.487718 19.4429 14.9882 0.0119761
0.188594 -0.031875 -0.0863778 0.477517 19.3216 14.912 0.0118582
0.197344 -0.0325 -0.0857235 0.482662 19.458 14.9674 0.0121192
0.210469 -0.0323437 -0.0857237 0.483799 19.371 15.0512 0.0119167
0.215625 -0.0314844 -0.0856285 0.478784 19.4582 15.0195 0.0120941
0.224453 -0.0313281 -0.0862869 0.477027 19.4537 14.9407 0.0119864
0.225 -0.031875 -0.0848305 0.47494 19.5391 15.0373 0.0121973
0.237891 -0.0330469 -0.0821758 0.471661 19.488 14.9871 0.0122562
0.245078 -0.0320312 -0.0857674 0.472519 19.5514 14.9502 0.0123222
0.255156 -0.0341406 -0.0846158 0.468734 19.4922 14.911 0.0122847
0.269297 -0.0330469 -0.0851106 0.466911 19.4996 14.9829 0.0123238
0.269062 -0.0314063 -0.0846877 0.463704 19.4263 14.8939 0.0123642
0.277969 -0.0334375 -0.0861131 0.46162 19.4835 15.0495 0.0121958
0.290234 -0.0353906 -0.0860766 0.462691 19.497 14.9392 0.0121444
0.295313 -0.03375 -0.0851053 0.45962 19.533 14.9968 0.01229
0.310078 -0.0346875 -0.0864392 0.459058 19.469 14.9087 0.0121951
0.314375 -0.0341406 -0.0876346 0.461673 19.517 14.9537 0.0120801
0.318281 -0.034375 -0.0879097 0.456727 19.4246 14.8949 0.0121705
0.327422 -0.0353906 -0.0864001 0.450271 19.5325 14.9831 0.0123309
0.332422 -0.0357031 -0.0873214 0.451905 19.3445 14.8683 0.0120154
0.352031 -0.0342187 -0.0848052 0.451629 19.4716 14.9228 0.0120345
0.345703 -0.03625 -0.0874208 0.447316 19.4864 14.9414 0.0121063
0.363672 -0.0364063 -0.0858203 0.448795 19.4475 14.9231 0.0121003
0.377109 -0.0379688 -0.0859975 0.444337 19.4397 14.9555 0.0120975
0.378359 -0.0363281 -0.0854302 0.439219 19.3499 14.9022 0.0121915
0.389063 -0.0339844 -0.087021 0.442165 19.5005 14.9597 0.012184
0.395547 -0.0375 -0.0887751 0.444555 19.4088 14.9545 0.0124584
0.410078 -0.0365625 -0.0857957 0.437255 19.3152 14.8299 0.0121491
0.412656 -0.0360156 -0.0882199 0.432687 19.3993 14.8449 0.0122568
0.426563 -0.0398438 -0.0888694 0.434437 19.4263 14.8582 0.0122528
0.427656 -0.0367188 -0.0879253 0.427434 19.426 14.8677 0.0121508
0.433281 -0.0392969 -0.0877707 0.422505 19.3288 14.8517 0.0121012
0.446172 -0.0384375 -0.0911105 0.427484 19.4476 14.8502 0.0121762
0.452031 -0.0375781 -0.0889932 0.426228 19.354 14.8164 0.0118562
0.467891 -0.0404687 -0.0923391 0.418299 19.4669 14.8268 0.0121841
0.474687 -0.0395313 -0.0890735 0.419169 19.3967 14.7302 0.0121107
0.480938 -0.0371875 -0.0885221 0.407044 19.4762 14.8097 0.0122335
0.486328 -0.0407812 -0.0887009 0.406785 19.4508 14.7735 0.0120633
0.498438 -0.0382031 -0.0915909 0.401737 19.3699 14.8041 0.012204
0.500859 -0.0409375 -0.0930687 0.401399 19.4026 14.7614 0.0119573
0.506406 -0.0395313 -0.0927868 0.400088 19.3753 14.6435 0.0121644
0.514219 -0.0408594 -0.0925654 0.393676 19.3615 14.6792 0.0118794
0.531172 -0.0410937 -0.0942624 0.387532 19.3366 14.6588 0.0120014
0.5425 -0.0414844 -0.0962279 0.389112 19.235 14.6987 0.0118847
0.542578 -0.0415625 -0.0955506 0.38551 19.2967 14.6428 0.0118487
0.566172 -0.0423437 -0.097417 0.386927 19.3623 14.643 0.0118648
0.549844 -0.0426562 -0.0977774 0.385102 19.2189 14.6226 0.0117655
0.569688 -0.0430469 -0.0980518 0.375818 19.281 14.5339 0.0118317
0.572734 -0.0488281 -0.0987846 0.37498 19.2905 14.5946 0.0119699
0.584297 -0.0535156 -0.101729 0.383051 19.2986 14.6079 0.0117164
0.595547 -0.0598438 -0.101113 0.375478 19.338 14.5946 0.0121055
0.601875 -0.0716406 -0.0995104 0.371282 19.2879 14.5995 0.0117653
0.615469 -0.086875 -0.0991459 0.370864 19.2261 14.6876 0.0119387
0.620938 -0.110469 -0.0996598 0.370508 19.1953 14.596 0.0116998
0.626797 -0.141328 -0.10327 0.367455 19.2478 14.5986 0.0116379
0.633984 -0.1775 -0.0985021 0.366513 19.1803 14.6216 0.0119137
0.646328 -0.219766 -0.100889 0.367136 19.144 14.5856 0.0118306
0.653594 -0.275469 -0.0986543 0.360344 19.2181 14.5885 0.0117045
0.664297 -0.330781 -0.103587 0.367655 19.2689 14.5795 0.011539
0.667578 -0.328125 -0.100316 0.363728 19.1939 14.6169 0.0118771
0.647734 -0.279375 -0.103989 0.358132 19.3348 14.5868 0.0117852
0.645938 -0.23 -0.104338 0.373743 19.2944 14.5216 0.0117952
0.633672 -0.188203 -0.104468 0.362399 19.2253 14.5602 0.0118562
0.6275 -0.153984 -0.103662 0.363642 19.3275 14.5535 0.0117831
0.617266 -0.122188 -0.105978 0.36874 19.2364 14.5142 0.0117012
0.616953 -0.0975781 -0.105526 0.365572 19.1767 14.6341 0.0117602
0.600469 -0.0792969 -0.108211 0.366686 19.2651 14.6334 0.0118685
0.593828 -0.0654688 -0.107809 0.363632 19.2459 14.5326 0.0116998
0.584922 -0.055 -0.107332 0.366137 19.2132 14.5904 0.0117377
0.578594 -0.0471094 -0.107303 0.368616 19.2536 14.5528 0.0119476
0.566484 -0.0430469 -0.107299 0.363958 19.3152 14.6354 0.0117251
0.554688 -0.0401562 -0.106392 0.372363 19.3779 14.5944 0.0117986
0.553828 -0.036875 -0.106585 0.370279 19.2268 14.5975 0.0118284
0.545 -0.0355469 -0.102827 0.365414 19.2537 14.6183 0.011803
0.542969 -0.0340625 -0.103071 0.36925 19.3788 14.5595 0.0119685
0.526563 -0.0332031 -0.107032 0.363749 19.2284 14.6112 0.0118566
0.516172 -0.0338281 -0.103489 0.373975 19.3567 14.6165 0.0117748
0.510703 -0.0346875 -0.104275 0.374184 19.2315 14.6576 0.011938
0.502109 -0.0321094 -0.107793 0.37606 19.2168 14.6131 0.0118058
0.496563 -0.0321875 -0.106594 0.373916 19.2593 14.7165 0.0118316
0.483672 -0.03375 -0.103375 0.375904 19.3172 14.6138 0.0119558
0.481094 -0.0310937 -0.104295 0.380586 19.356 14.6839 0.0121993
0.467891 -0.0313281 -0.105548 0.377662 19.3199 14.6407 0.011986
0.465078 -0.03 -0.105364 0.380539 19.2486 14.6885 0.0119201
0.454453 -0.0310937 -0.105658 0.376597 19.3325 14.7023 0.0123229
0.443203 -0.0316406 -0.10341 0.386655 19.3525 14.7592 0.0119596
0.436797 -0.0311719 -0.10175 0.385527 19.2258 14.6638 0.0121173
0.423516 -0.03125 -0.103823 0.385442 19.3796 14.7538 0.0120399
0.426797 -0.0314063 -0.100797 0.389537 19.2816 14.6739 0.0119834
0.415547 -0.0311719 -0.101197 0.389581 19.4395 14.7485 0.0119332
0.399609 -0.0319531 -0.10209 0.390294 19.407 14.7159 0.012046
0.395156 -0.0322656 -0.100586 0.394983 19.3461 14.7415 0.0119826
0.381953 -0.0314063 -0.0990417 0.397358 19.3466 14.6438 0.011993
0.380234 -0.0310937 -0.10036 0.39636 19.2912 14.6942 0.0121779
0.376953 -0.0307812 -0.0989573 0.400292 19.3562 14.6901 0.0122526
0.367812 -0.0309375 -0.0994507 0.40308 19.4269 14.7747 0.0119643
0.358594 -0.0304687 -0.0971063 0.400053 19.4013 14.7786 0.0121592
0.343906 -0.0286719 -0.0968871 0.411379 19.3796 14.7374 0.0120146
0.337109 -0.0310156 -0.0993548 0.411626 19.3698 14.7818 0.0119155
0.334688 -0.0296875 -0.101451 0.406112 19.3395 14.723 0.0121993
0.321484 -0.0285156 -0.0961145 0.410151 19.3585 14.7159 0.0121533
0.309922 -0.0300781 -0.114901 0.375305 19.1696 14.6634 0.0100191
0.301953 -0.0282031 -0.173726 0.347973 18.7228 14.5375 0.00620982
0.291875 -0.0252344 -0.174709 0.342838 18.6512 14.6589 0.00589307
0.29125 -0.0250781 -0.162367 0.346845 18.9263 14.5861 0.00613838
0.277188 -0.0288281 -0.107081 0.3696 19.2492 14.5756 0.00546063
0.270859 -0.0244531 -0.0598122 0.421119 19.0298 14.7645 0.00261676
0.254297 -0.02375 -0.0347202 0.447785 18.313 13.4755 0.000866159
0.249688 -0.024375 0.0212864 0.370304 17.7907 15.2079 0.000571368
0.250625 -0.025 0.0352118 0.324668 16.452 10.9441 0.000440738
0.241016 -0.0225781 -0.00373172 0.559479 17.5617 14.1755 0.000306238
0.23 -0.0247656 -0.0178959 0.329106 18.686 16.1719 0.000715901
0.213359 -0.0257813 -0.045352 0.478467 18.4285 15.1615 0.00104576
0.210703 -0.0248438 -0.0493613 0.425594 18.8428 14.5957 0.00215744
0.202109 -0.0272656 -0.0694067 0.450955 19.3149 14.7476 0.00391157
0.195859 -0.0255469 -0.0664922 0.441895 19.2208 14.8677 0.00597793
0.194688 -0.026875 -0.0675707 0.447014 19.3456 14.8742 0.00799402
0.183125 -0.0274219 -0.0698207 0.442642 19.3066 14.9007 0.00989746
0.172344 -0.0269531 -0.0755496 0.450222 19.3725 15.0302 0.0106668
0.167344 -0.0263281 -0.0800354 0.452584 19.4759 14.9867 0.0112666
0.154297 -0.0260937 -0.0837181 0.456892 19.4353 14.9446 0.0115487
0.144375 -0.0250781 -0.0854849 0.46028 19.4579 14.9437 0.0118748
0.135234 -0.025625 -0.0868889 0.461314 19.4156 14.97 0.011761
0.129453 -0.0252344 -0.0881537 0.45814 19.4578 14.9094 0.0120644
0.120625 -0.0249219 -0.0886741 0.465363 19.3711 14.9654 0.011942
0.124219 -0.024375 -0.0885705 0.464536 19.4152 14.9982 0.0121939
0.100859 -0.0240625 -0.0881755 0.467962 19.366 14.8807 0.0120596
0.090625 -0.0255469 -0.0882475 0.475797 19.3639 14.9983 0.0121984
0.0875781 -0.0253906 -0.0888852 0.471623 19.5185 14.9816 0.012006
0.078125 -0.0246094 -0.0876928 0.479673 19.4448 14.9392 0.0119606
0.07375 -0.0247656 -0.0865433 0.472636 19.4565 14.9511 0.0119239
0.0592188 -0.0248438 -0.087096 0.480171 19.3458 15.0387 0.0119197
0.0520313 -0.02375 -0.0881082 0.482227 19.3389 14.94 0.0119849
0.045625 -0.0235938 -0.0823044 0.483358 19.333 15.0279 0.0119501
0.0449219 -0.0239844 -0.0866921 0.488786 19.425 15.0233 0.0118484
0.0339062 -0.0230469 -0.085455 0.493651 19.3276 15.0124 0.0118608
0.0215625 -0.024375 -0.0839947 0.498824 19.3759 15.0221 0.0117965
0.0103906 -0.0235156 -0.0843076 0.50056 19.3615 15.0698 0.0117378
0.00296875 -0.0229687 -0.0838012 0.501782 19.4363 15.073 0.0117882
-0.0075 -0.0213281 -0.0819056 0.504994 19.3785 15.069 0.0119565
-0.01 -0.0225781 -0.0820125 0.502841 19.349 15.1038 0.0117495
-0.02125 -0.0225 -0.0797005 0.508225 19.3635 15.0929 0.0118236
-0.0263281 -0.0205469 -0.0793554 0.510435 19.3587 15.1316 0.0117317
-0.0225781 -0.0236719 -0.0787112 0.514073 19.3712 15.143 0.0117401
-0.0127344 -0.0239063 -0.0767367 0.519569 19.3598 15.0945 0.0118564
-0.001875 -0.0251563 -0.0762512 0.514575 19.4078 15.0815 0.0116473
-0.00117187 -0.0251563 -0.076373 0.514333 19.4503 15.0727 0.0118282
0.021875 -0.0259375 -0.0743926 0.516166 19.3951 15.0534 0.0117363
0.0186719 -0.0255469 -0.0734754 0.513675 19.3584 15.0834 0.011678
0.0297656 -0.0255469 -0.0752574 0.518255 19.4102 15.0765 0.0117778
0.0432813 -0.0264844 -0.07496 0.507607 19.4292 15.0896 0.0117332
0.05375 -0.0273438 -0.0760288 0.51403 19.391 15.1089 0.0118017
0.0588281 -0.0260156 -0.0750849 0.511725 19.4368 15.1059 0.0117988
0.0634375 -0.0275781 -0.0735892 0.516542 19.4169 15.0638 0.0117926
0.0755469 -0.026875 -0.0739787 0.508734 19.3872 15.0944 0.0117115
0.0817969 -0.0292969 -0.0720908 0.509395 19.3897 15.0822 0.011626
0.0864063 -0.0283594 -0.0748902 0.50774 19.3758 15.0709 0.0116606
0.0971094 -0.0290625 -0.0722386 0.502088 19.4069 15.026 0.0113748
0.102969 -0.0269531 -0.0686767 0.501267 19.3634 15.0533 0.0116293
0.115078 -0.03 -0.0685429 0.50102 19.3326 15.1757 0.0111445
0.126328 -0.0291406 -0.064709 0.498185 19.4021 15.061 0.0111159
0.135234 -0.03 -0.0616124 0.497445 19.4159 15.104 0.0107299
0.139063 -0.0300781 -0.0569691 0.49381 19.227 15.1132 0.0104516
0.147031 -0.0308594 -0.0552708 0.492001 19.3055 15.0133 0.00978522
0.159766 -0.029375 -0.0543857 0.489759 19.3118 14.9598 0.0092314
0.169219 -0.0288281 -0.0529112 0.486875 19.2595 15.0348 0.00865508
0.174531 -0.0296875 -0.053736 0.483069 19.2717 15.0579 0.00848325
0.184375 -0.0315625 -0.0538507 0.484671 19.3013 15.0877 0.00841881
0.1925 -0.0289844 -0.0563006 0.4839 19.3246 15.102 0.0084631
0.1975 -0.0310937 -0.053709 0.47783 19.3017 15.0799 0.00841589
0.210938 -0.0304687 -0.0557748 0.481403 19.2589 15.0504 0.00890632
0.214063 -0.0324219 -0.057022 0.478272 19.2821 15.0321 0.00907673
0.220156 -0.0313281 -0.0559338 0.476839 19.3163 15.0106 0.00970226
0.232891 -0.0314063 -0.0564279 0.477239 19.3937 14.9749 0.0100507
0.236484 -0.0330469 -0.0641015 0.478673 19.3749 14.972 0.0108112
0.246875 -0.0317969 -0.0636903 0.475556 19.3839 14.9568 0.0113184
0.253437 -0.0317969 -0.0698118 0.474388 19.4155 14.8947 0.0112951
0.267188 -0.0338281 -0.0777153 0.472957 19.4007 14.9562 0.0118014
0.274609 -0.0346875 -0.0829078 0.470198 19.5158 15.0261 0.0122127
0.276328 -0.0342187 -0.0847352 0.46684 19.5036 14.973 0.0125567
0.284219 -0.0330469 -0.0884208 0.466116 19.4146 14.9593 0.0125085
0.301953 -0.034375 -0.0909902 0.458284 19.354 14.9658 0.0122194
0.310391 -0.0336719 -0.0935812 0.455765 19.4722 14.8906 0.0126549
0.310469 -0.0338281 -0.0945236 0.453886 19.4953 14.8772 0.0126765
0.325703 -0.0342187 -0.0944718 0.452986 19.3791 14.8886 0.0126732
0.326797 -0.0347656 -0.0992058 0.446159 19.4022 14.9156 0.0123158
0.337891 -0.035625 -0.0970137 0.442903 19.4942 14.8817 0.0124623
0.341484 -0.0360938 -0.096657 0.440969 19.4021 14.8654 0.012456
0.349844 -0.0357813 -0.0960486 0.44204 19.425 14.8333 0.0124289
0.365156 -0.0357813 -0.0973333 0.440986 19.4172 14.9122 0.0124905
0.372812 -0.0364063 -0.096216 0.441714 19.4319 14.9247 0.0126245
0.380781 -0.0371875 -0.0960071 0.433636 19.4753 14.8717 0.0126882
0.382578 -0.0379688 -0.0957232 0.428809 19.3599 14.8628 0.012531
0.391328 -0.035 -0.0952077 0.437333 19.4947 14.8953 0.0126613
0.404844 -0.0353125 -0.0946642 0.436776 19.4319 14.8903 0.0124873
0.405859 -0.0382031 -0.0953236 0.4299 19.4144 14.8711 0.012449
0.419609 -0.0364844 -0.0950048 0.434335 19.4068 14.8686 0.0124964
0.425156 -0.0379688 -0.0930158 0.428293 19.3852 14.8657 0.0124804
0.437266 -0.0385156 -0.0940797 0.429035 19.4628 14.928 0.0125997
0.448594 -0.0389844 -0.0921312 0.424981 19.4459 14.8476 0.0124771
0.448047 -0.0380469 -0.0900228 0.430203 19.4579 14.8015 0.0124148
0.457031 -0.0392969 -0.0927439 0.42069 19.3528 14.8298 0.0121945
0.471953 -0.0396094 -0.0922726 0.424258 19.402 14.7769 0.0122708
0.477969 -0.0390625 -0.0920583 0.413882 19.353 14.676 0.0122766
0.488359 -0.04125 -0.0901231 0.412171 19.4207 14.8194 0.0123307
0.497031 -0.0402344 -0.0900878 0.410502 19.3214 14.7903 0.0123086
0.501328 -0.0425781 -0.0891821 0.4046 19.439 14.7275 0.0122397
0.503203 -0.0402344 -0.0912282 0.397467 19.3583 14.715 0.0120473
0.519531 -0.039375 -0.0892288 0.395474 19.2724 14.6942 0.0120446
0.527891 -0.0411719 -0.0895278 0.399361 19.3701 14.7058 0.0119692
0.536172 -0.0389844 -0.0922667 0.39221 19.3494 14.6331 0.011981
0.547656 -0.0416406 -0.0915345 0.386199 19.4094 14.6827 0.0118234
0.550937 -0.0421094 -0.092663 0.386841 19.335 14.684 0.0120006
0.561094 -0.0411719 -0.0938843 0.383726 19.2191 14.6425 0.0119152
0.562031 -0.0453906 -0.0912203 0.377569 19.2446 14.6254 0.011923
0.574141 -0.0454688 -0.0931957 0.381925 19.2717 14.6333 0.0119232
0.582031 -0.0504687 -0.0963413 0.37826 19.3225 14.5917 0.0119747
0.591562 -0.0560156 -0.0954474 0.374478 19.2385 14.6488 0.0118881
0.605391 -0.0664062 -0.0964322 0.375198 19.2698 14.7195 0.0119081
0.609375 -0.0794531 -0.0949926 0.373048 19.3093 14.5131 0.0121782
0.618437 -0.101094 -0.0978312 0.371225 19.2349 14.5616 0.0118135
0.62375 -0.125547 -0.0965959 0.374652 19.299 14.5786 0.0116524
0.638281 -0.15625 -0.0995733 0.371599 19.3101 14.6159 0.0118214
0.641563 -0.193984 -0.0985411 0.373715 19.306 14.6508 0.0118624
0.648984 -0.243281 -0.0988079 0.372735 19.3244 14.614 0.0121455
0.655859 -0.291719 -0.0997364 0.373619 19.3099 14.6189 0.0119817
0.662031 -0.347109 -0.101532 0.36917 19.197 14.687 0.0117118
0.661484 -0.30125 -0.105967 0.363064 19.222 14.4929 0.0116733
0.650781 -0.25125 -0.102615 0.367981 19.2623 14.537 0.0117934
0.636484 -0.209375 -0.100515 0.366012 19.3114 14.5532 0.0117589
0.633828 -0.1725 -0.101041 0.365638 19.3039 14.5422 0.0120017
0.62 -0.138984 -0.102972 0.364419 19.3797 14.5696 0.0118992
0.613437 -0.113594 -0.102893 0.367706 19.2855 14.6135 0.0119547
0.611953 -0.0920312 -0.101118 0.367587 19.2624 14.5866 0.0117275
0.593281 -0.0749219 -0.0991147 0.362889 19.1931 14.5551 0.0115815
0.591797 -0.0610938 -0.101629 0.365597 19.2536 14.6288 0.0119513
0.580703 -0.0519531 -0.106609 0.372636 19.2871 14.5692 0.0118461
0.576953 -0.0464063 -0.10509 0.369791 19.239 14.6316 0.0120312
0.574141 -0.0417969 -0.100388 0.370845 19.1838 14.544 0.0119914
0.563438 -0.0379688 -0.0951337 0.371482 19.3053 14.6313 0.0115089
0.545156 -0.0371875 -0.0978528 0.371836 19.3191 14.5904 0.0117824
0.546563 -0.03625 -0.0980936 0.370626 19.1525 14.6159 0.0119044
0.527188 -0.0335156 -0.0988017 0.371156 19.318 14.6679 0.0117119
0.526953 -0.0342187 -0.0987934 0.376109 19.3098 14.6409 0.0117791
0.514062 -0.035 -0.0979376 0.371484 19.359 14.6973 0.0118755
0.503125 -0.0317188 -0.100296 0.376039 19.3017 14.7167 0.0116721
0.498906 -0.0314063 -0.097824 0.380832 19.3107 14.5925 0.0118139
0.494297 -0.0344531 -0.0962412 0.374616 19.3384 14.6581 0.0118374
0.485781 -0.0328906 -0.098957 0.386033 19.2434 14.6716 0.0117328
0.472969 -0.0315625 -0.0990588 0.38734 19.3225 14.7371 0.0120788
0.466719 -0.0325781 -0.0962572 0.384795 19.2086 14.6412 0.0118767
0.459688 -0.0300781 -0.097247 0.388707 19.3462 14.6714 0.0117653
0.444219 -0.0298438 -0.0964529 0.388372 19.288 14.6015 0.0118036
0.444844 -0.0310937 -0.097234 0.394487 19.3327 14.6808 0.0119801
0.433984 -0.0310156 -0.0945391 0.389696 19.3121 14.7617 0.0118446
0.424063 -0.0278906 -0.0969173 0.395152 19.4597 14.7382 0.0120939
0.414219 -0.030625 -0.094074 0.394998 19.3748 14.7096 0.0117383
0.4025 -0.0310937 -0.0938573 0.396591 19.4456 14.8348 0.0121079
0.403672 -0.0291406 -0.0950236 0.400409 19.3322 14.7613 0.0119079
0.393047 -0.03125 -0.0907739 0.401571 19.4261 14.7963 0.0122213
0.380859 -0.0325781 -0.0908642 0.401553 19.4061 14.7716 0.0119254
0.372891 -0.0302344 -0.0912367 0.40331 19.3427 14.8263 0.0118214
0.360781 -0.03125 -0.093651 0.407508 19.3543 14.7637 0.0120722
0.359375 -0.0292188 -0.093176 0.402796 19.4126 14.7553 0.0120126
0.34625 -0.0311719 -0.0931432 0.410758 19.3931 14.8168 0.0121631
0.344453 -0.0310156 -0.0907299 0.412533 19.4803 14.9044 0.0119898
0.332891 -0.0284375 -0.0922626 0.415744 19.4171 14.8334 0.0120742
0.323281 -0.0303906 -0.0895462 0.419866 19.4235 14.7602 0.0120762
0.318828 -0.03125 -0.0905615 0.419989 19.3241 14.8347 0.0120272
0.312266 -0.0303906 -0.0919338 0.421683 19.4373 14.867 0.0120706
0.303516 -0.0299219 -0.0895713 0.421255 19.4608 14.8662 0.0122694
0.292109 -0.0289844 -0.0879042 0.422469 19.4288 14.8498 0.0118637
0.286484 -0.0279688 -0.0928485 0.427555 19.3657 14.8367 0.012117
0.278984 -0.0303906 -0.0917002 0.428108 19.4137 14.9004 0.012001
0.26375 -0.0292188 -0.091878 0.428223 19.4084 14.9031 0.0119828
0.253437 -0.029375 -0.0936662 0.430806 19.4203 14.8571 0.0120188
0.246016 -0.0282031 -0.0926268 0.436478 19.3347 14.8692 0.0119146
0.241875 -0.0289063 -0.0909785 0.432396 19.4372 14.879 0.0119766
0.232422 -0.0271875 -0.0927496 0.436271 19.4756 14.9622 0.0122348
0.228125 -0.0290625 -0.0926259 0.434769 19.4194 14.9768 0.0121064
0.216875 -0.0289063 -0.0924603 0.444435 19.3384 14.8798 0.0119052
0.20875 -0.0266406 -0.0906133 0.443977 19.3943 14.8959 0.0121025
0.195234 -0.0280469 -0.0916459 0.444665 19.4842 14.9629 0.0120679
0.193047 -0.0289063 -0.0900272 0.447955 19.3526 14.9059 0.0121187
0.184766 -0.02625 -0.0902553 0.439117 19.4373 14.9543 0.0119272
0.177891 -0.0260937 -0.0904926 0.452785 19.365 14.9113 0.0121896
0.172656 -0.0246875 -0.0879695 0.452143 19.4425 14.9076 0.0117713
0.164688 -0.0267969 -0.09008 0.456326 19.425 15.038 0.0120683
0.155859 -0.0249219 -0.0867096 0.454283 19.4756 15.0648 0.0123041
0.143359 -0.0265625 -0.086719 0.458334 19.3848 14.9018 0.0119695
0.130781 -0.0252344 -0.0848219 0.460284 19.3109 14.8714 0.0120666
0.122813 -0.0267969 -0.0885674 0.460829 19.4707 14.9431 0.0121125
0.11625 -0.0253906 -0.0857323 0.464636 19.4918 14.9574 0.0121047
0.110234 -0.0246094 -0.0838779 0.464937 19.45 14.9863 0.0120989
0.1075 -0.0253125 -0.0859607 0.471794 19.4959 15.0148 0.0121201
0.0925781 -0.0233594 -0.0873144 0.473325 19.3941 14.9804 0.011991
0.0834375 -0.0241406 -0.0863071 0.476408 19.4452 14.9983 0.0122351
0.0710156 -0.0254688 -0.0848792 0.477159 19.4887 15.0088 0.0120868
0.0564062 -0.0241406 -0.0843845 0.477508 19.2934 15.0147 0.0119694
0.05625 -0.0236719 -0.0869872 0.479421 19.3094 15.0225 0.0120232
0.0514844 -0.0238281 -0.0867613 0.482039 19.3648 15.0545 0.0119801
0.0370313 -0.02375 -0.0878662 0.484675 19.4141 15.0664 0.0120975
0.0351562 -0.0232812 -0.0881526 0.489651 19.3427 15.0218 0.0121286
0.0242969 -0.0235938 -0.0887107 0.49088 19.2946 15.0481 0.0121632
0.0223437 -0.0234375 -0.0866574 0.491634 19.3372 15.1017 0.0120713
0.00953125 -0.0230469 -0.0852566 0.499527 19.3903 15.0583 0.0120857
0.0021875 -0.0225781 -0.0868875 0.497561 19.3954 15.0584 0.0120348
-0.01 -0.0216406 -0.0848221 0.502094 19.3555 15.0671 0.0120328
-0.0107813 -0.023125 -0.0835154 0.500661 19.3746 15.0297 0.0120081
-0.0214063 -0.021875 -0.0845665 0.506433 19.252 15.0925 0.0117926
-0.0205469 -0.0223437 -0.0812415 0.511002 19.3051 15.0989 0.012191
-0.0144531 -0.0245313 -0.0820965 0.513425 19.4495 15.0961 0.0122792
-0.00289062 -0.0235938 -0.0818799 0.513532 19.4451 15.0646 0.011952
0.00601563 -0.0234375 -0.0819835 0.510289 19.4425 15.1345 0.0119976
0.0059375 -0.0258594 -0.0823836 0.507963 19.4312 15.0814 0.0120687
0.0154687 -0.0260156 -0.080963 0.514866 19.3693 15.0529 0.0120965
0.0314844 -0.0260156 -0.0815439 0.510304 19.357 15.1427 0.0122462
0.0335156 -0.0269531 -0.0813232 0.506415 19.4786 15.0479 0.0119916
0.0442969 -0.0261719 -0.0806431 0.505342 19.4368 15.1218 0.0121741
0.0517969 -0.0264844 -0.0790411 0.506653 19.4113 15.0888 0.0121208
0.0661719 -0.0271875 -0.0809286 0.507859 19.3659 15.0632 0.0120195
0.0729687 -0.0271094 -0.0814782 0.50883 19.5045 15.0648 0.0120504
0.0786719 -0.0276563 -0.0795365 0.506537 19.3361 15.1016 0.0118667
0.0896875 -0.0269531 -0.0772373 0.507859 19.3778 15.0797 0.0120391
0.0942969 -0.0285156 -0.0792551 0.505051 19.3631 15.033 0.0120366
0.102813 -0.02875 -0.0806966 0.500008 19.4312 15.154 0.0121263
0.103281 -0.0297656 -0.0785785 0.501929 19.4122 15.1085 0.012157
0.121484 -0.0297656 -0.079204 0.504213 19.4517 15.0519 0.0122177
0.132031 -0.0288281 -0.0792931 0.501536 19.37 15.03 0.0120478
0.137344 -0.0291406 -0.0794588 0.498069 19.4188 15.0279 0.0118346
0.138125 -0.0294531 -0.0774774 0.497976 19.5224 15.0727 0.0121178
0.156172 -0.030625 -0.0779153 0.493612 19.3996 15.0365 0.0118304
0.158828 -0.0291406 -0.079837 0.494721 19.3609 15.0972 0.011745
0.173047 -0.0314063 -0.080793 0.486742 19.4155 15.0425 0.0121013
0.172109 -0.0309375 -0.079139 0.482884 19.3346 15.0209 0.0120062
0.185469 -0.031875 -0.0812361 0.4883 19.4188 15.088 0.0120972
0.196328 -0.031875 -0.0815213 0.491983 19.3938 14.9555 0.0120578
0.199375 -0.0320312 -0.0837025 0.487382 19.3797 15.013 0.0121077
0.204219 -0.0327344 -0.0817906 0.484652 19.4797 14.969 0.0121256
0.213438 -0.0327344 -0.0832099 0.481516 19.397 15.0103 0.0121504
0.224844 -0.033125 -0.0825595 0.476548 19.3971 15.0106 0.0118591
0.236563 -0.0325781 -0.0846295 0.474527 19.4809 14.9905 0.0122833
0.241563 -0.033125 -0.0802564 0.477223 19.4874 14.9688 0.0123565
0.251563 -0.0324219 -0.0827456 0.469625 19.5015 14.9584 0.0124483
0.260391 -0.0338281 -0.0809552 0.477746 19.4052 15.014 0.0119749
0.269375 -0.0329687 -0.0816841 0.472902 19.4724 14.9787 0.0123994
0.280859 -0.0342187 -0.0814895 0.472589 19.4603 14.9595 0.012243
0.281406 -0.0327344 -0.0820456 0.462926 19.418 14.9717 0.0121279
0.289297 -0.035625 -0.0816891 0.463408 19.548 15.0141 0.0123237
0.302969 -0.0332812 -0.0814813 0.465369 19.4067 14.9489 0.0121709
0.307188 -0.0357031 -0.0824998 0.464006 19.5186 14.9919 0.0123607
0.308906 -0.035625 -0.0819325 0.463731 19.4772 14.9505 0.01242
0.325078 -0.0359375 -0.0832203 0.465942 19.4073 14.9034 0.0122223
0.327813 -0.0330469 -0.0819095 0.457775 19.4794 15.0191 0.0121506
0.342266 -0.0347656 -0.0813549 0.455639 19.3443 14.9208 0.0121197
0.353281 -0.0363281 -0.0829654 0.454547 19.3891 14.9437 0.0123017
0.360938 -0.0367188 -0.0813494 0.455813 19.4658 14.9681 0.0122954
0.366797 -0.0355469 -0.0840206 0.45373 19.4043 14.8717 0.0121575
0.372891 -0.0355469 -0.0805348 0.445823 19.4914 14.9797 0.0121248
0.368203 -0.0360938 -0.0832823 0.448773 19.3675 14.9648 0.0123439
0.368828 -0.0360156 -0.0821083 0.450714 19.5149 14.8721 0.012274
0.366406 -0.0350781 -0.0823275 0.452988 19.3611 14.9333 0.0123443
0.366172 -0.0350781 -0.0826759 0.446689 19.4613 14.8618 0.0122787
0.360859 -0.0357031 -0.083053 0.444913 19.371 14.8656 0.0122006
0.377109 -0.0355469 -0.0828657 0.450415 19.4066 14.9546 0.0122676
0.363828 -0.0353125 -0.0814474 0.446654 19.4463 14.9516 0.0120793
0.370859 -0.0330469 -0.0820197 0.446699 19.4679 14.8896 0.012345
0.366719 -0.0334375 -0.082917 0.440694 19.4379 14.8818 0.0120051
0.369531 -0.0335156 -0.0825497 0.439066 19.3942 14.8616 0.0119803
0.364063 -0.0347656 -0.0844343 0.443283 19.4126 14.8569 0.0121688
0.366797 -0.0330469 -0.0821794 0.444845 19.4796 14.9032 0.0120319
0.371016 -0.0349219 -0.0838276 0.448037 19.4277 14.9115 0.0122622
0.367812 -0.0334375 -0.0832248 0.439758 19.4672 14.9127 0.0120229
0.367422 -0.0322656 -0.0841886 0.440499 19.4106 14.9096 0.012285
0.363516 -0.0323437 -0.082914 0.440862 19.3967 14.9083 0.012281
0.367969 -0.0357813 -0.0865338 0.443097 19.4104 14.9391 0.0121362
0.362969 -0.0320312 -0.0847948 0.43761 19.4596 14.8762 0.0123883
0.365703 -0.0329687 -0.0854999 0.443926 19.3965 14.8931 0.0122482
0.364141 -0.0319531 -0.0856842 0.445843 19.3986 14.8639 0.0122149
0.367109 -0.0354688 -0.0873718 0.437451 19.4228 14.8371 0.0121565
0.372891 -0.035 -0.0857547 0.440888 19.4288 14.8841 0.0121585
0.371406 -0.0326562 -0.0861239 0.438613 19.4712 14.9524 0.0120691
0.361016 -0.0347656 -0.0868193 0.432315 19.4293 14.9068 0.0122609
0.369766 -0.0348437 -0.0856869 0.44429 19.4691 14.9519 0.0123119
0.365078 -0.0319531 -0.0834939 0.440957 19.3746 14.8858 0.0121557