File: scripts/CV_XRD/data/ascii/I20180835_221_CV_XRD.dat
# I20180835 #221 CV with XRD
# Potential / V, Current Density / mA/cm^2, Strain ip / %, Strain oop / %, d ip / nm, d oop / nm, Intensity (area ip)
0.564844 -0.0290625 -0.0741943 0.417381 19.3933 14.7798 0.0118643
0.567109 -0.0294531 -0.0813032 0.418185 19.3609 14.7983 0.0117976
0.567266 -0.0298438 -0.0819269 0.420199 19.2256 14.7959 0.0115538
0.583047 -0.0277344 -0.0868184 0.419638 19.3222 14.741 0.0117072
0.590313 -0.0285156 -0.0847242 0.411291 19.4038 14.7262 0.0118346
0.595938 -0.0275781 -0.0834771 0.422244 19.355 14.7745 0.0116836
0.598594 -0.0286719 -0.083516 0.411196 19.3192 14.7549 0.0117609
0.602656 -0.0309375 -0.0868186 0.415202 19.3996 14.8036 0.0118578
0.621094 -0.0321875 -0.0837963 0.402734 19.2837 14.6969 0.0118087
0.632812 -0.0300781 -0.0842984 0.407243 19.3041 14.7307 0.0117218
0.639844 -0.0320312 -0.0858392 0.402408 19.3585 14.7285 0.011717
0.652734 -0.0346875 -0.0856678 0.395891 19.3675 14.6989 0.0117757
0.653984 -0.0341406 -0.0858137 0.401912 19.2676 14.671 0.0116467
0.664453 -0.0347656 -0.0860872 0.401742 19.2009 14.643 0.0115992
0.673203 -0.0305469 -0.0861858 0.391788 19.3821 14.7072 0.0117132
0.681719 -0.0309375 -0.0889538 0.388641 19.2374 14.5869 0.0114614
0.691094 -0.0308594 -0.0882838 0.383742 19.3703 14.7001 0.0114934
0.698594 -0.0352344 -0.0856989 0.383899 19.1957 14.6405 0.0112179
0.705937 -0.0335937 -0.0888186 0.3832 19.2067 14.5999 0.0114002
0.716406 -0.0339062 -0.0884882 0.375494 19.2923 14.5802 0.0114613
0.718438 -0.0332812 -0.0909062 0.378698 19.1791 14.5759 0.0113299
0.733906 -0.0346094 -0.0904587 0.378627 19.2056 14.5838 0.011335
0.745859 -0.0360156 -0.090376 0.377749 19.2908 14.5421 0.0113523
0.749688 -0.0357031 -0.090629 0.373416 19.2248 14.4079 0.0116873
0.761875 -0.0360156 -0.0914781 0.371866 19.1141 14.5321 0.0112511
0.767656 -0.0364844 -0.0928285 0.372541 19.2446 14.5452 0.011439
0.771797 -0.0403125 -0.0933234 0.37052 19.1939 14.5738 0.0112367
0.778203 -0.0385156 -0.0941317 0.364675 19.2769 14.521 0.0111964
0.792734 -0.0428906 -0.0949138 0.36098 19.1725 14.4547 0.0112516
0.80375 -0.0461719 -0.0940517 0.357247 19.2405 14.4797 0.011367
0.806328 -0.0532031 -0.0941739 0.357757 19.0479 14.4554 0.0112902
0.808594 -0.06125 -0.0943275 0.354751 19.1596 14.5456 0.0114106
0.822578 -0.070625 -0.0958127 0.357301 19.1597 14.4969 0.0110469
0.825703 -0.0797656 -0.0947584 0.353687 19.1143 14.5168 0.0111532
0.839609 -0.0910156 -0.0968737 0.349702 19.1284 14.4921 0.0111602
0.844063 -0.104375 -0.0986517 0.351383 19.1284 14.4731 0.0113725
0.859375 -0.116562 -0.101432 0.348859 19.1432 14.4564 0.0110623
0.871406 -0.132812 -0.101269 0.351273 19.1935 14.4554 0.0111124
0.882109 -0.151328 -0.100454 0.35099 19.0518 14.4579 0.0109888
0.879766 -0.170547 -0.100417 0.351456 19.1916 14.3977 0.0110038
0.889219 -0.193047 -0.103015 0.348618 19.0875 14.4051 0.0108403
0.899453 -0.208828 -0.103852 0.350578 19.2437 14.4413 0.0110281
0.905391 -0.236328 -0.102797 0.34863 19.0171 14.4046 0.0109448
0.912969 -0.257109 -0.105755 0.351844 19.2004 14.3702 0.0112738
0.926719 -0.281406 -0.10734 0.345856 18.9161 14.4575 0.0109044
0.931875 -0.304766 -0.108123 0.346069 19.0406 14.4226 0.0107703
0.945469 -0.330234 -0.103028 0.341826 19.112 14.4019 0.0110151
0.950703 -0.351016 -0.104151 0.347406 19.1254 14.39 0.0110666
0.951641 -0.375469 -0.102825 0.340463 19.096 14.3243 0.0110531
0.961406 -0.372969 -0.103897 0.339876 19.1796 14.4186 0.0108553
0.951406 -0.325078 -0.101629 0.342013 19.0634 14.356 0.0109913
0.944375 -0.28375 -0.103667 0.34166 19.1347 14.4513 0.0109851
0.935391 -0.253516 -0.103255 0.338387 19.0905 14.3691 0.0109577
0.922734 -0.221406 -0.105058 0.342687 19.0837 14.3955 0.0110018
0.918359 -0.198828 -0.105718 0.341547 19.0315 14.4548 0.0112104
0.91375 -0.173594 -0.108874 0.343008 19.0097 14.4033 0.0111082
0.910312 -0.155234 -0.106108 0.344525 19.0608 14.5351 0.0108785
0.88625 -0.137266 -0.104525 0.344302 19.0792 14.369 0.0109141
0.886328 -0.121563 -0.104796 0.342435 19.1426 14.519 0.0110136
0.873828 -0.105703 -0.108286 0.3357 18.9886 14.4293 0.0108631
0.861094 -0.0941406 -0.103667 0.345189 19.0713 14.3834 0.010987
0.851875 -0.0845313 -0.10601 0.335076 19.0616 14.3847 0.0109687
0.850078 -0.0730469 -0.105349 0.340055 19.1642 14.3627 0.0108816
0.849609 -0.0659375 -0.107671 0.340554 19.2221 14.4708 0.0109427
0.83 -0.0574219 -0.104537 0.339463 19.1484 14.4491 0.0111932
0.823672 -0.0517188 -0.106659 0.342671 19.1102 14.4566 0.0111362
0.812188 -0.0485156 -0.107329 0.339411 19.0245 14.416 0.0109532
0.807578 -0.0413281 -0.105753 0.336823 19.1224 14.4249 0.0109909
0.802188 -0.0383594 -0.105468 0.349417 19.0586 14.375 0.0113337
0.790625 -0.0375 -0.110687 0.340677 19.1347 14.3797 0.0112289
0.786406 -0.0352344 -0.108825 0.340026 19.1911 14.548 0.0114267
0.775156 -0.0338281 -0.107405 0.345647 19.1028 14.4604 0.0110367
0.752891 -0.0307812 -0.10832 0.348903 19.0969 14.4463 0.0114928
0.761797 -0.0300781 -0.109878 0.343589 19.1492 14.5125 0.0111352
0.7475 -0.0307031 -0.107968 0.343589 19.0285 14.4299 0.0111272
0.739219 -0.028125 -0.10639 0.344998 19.1474 14.4917 0.0111113
0.731172 -0.0289063 -0.10461 0.341622 19.1679 14.431 0.0111492
0.726562 -0.025625 -0.106668 0.346392 19.2774 14.4464 0.0113996
0.714844 -0.0310156 -0.106918 0.351059 19.2265 14.5417 0.0111353
0.705313 -0.0302344 -0.111871 0.34998 19.1447 14.5007 0.0112486
0.704453 -0.0278906 -0.109887 0.355497 19.1103 14.5034 0.0114889
0.693516 -0.0278125 -0.108653 0.353194 19.221 14.4988 0.0112967
0.690469 -0.0288281 -0.107228 0.35178 19.2136 14.5377 0.0113062
0.673984 -0.0289844 -0.10769 0.36042 19.1218 14.5236 0.0112217
0.669297 -0.0278125 -0.104827 0.358896 19.2038 14.5072 0.0114093
0.661641 -0.02625 -0.106444 0.360269 19.204 14.5828 0.0113984
0.651953 -0.0286719 -0.106315 0.364755 19.2281 14.5545 0.0115245
0.642734 -0.0285156 -0.105552 0.359989 19.2288 14.6249 0.0113853
0.630625 -0.0267969 -0.104721 0.366071 19.2411 14.5396 0.0115206
0.621719 -0.0241406 -0.102882 0.36651 19.2622 14.5368 0.0113683
0.61375 -0.0260937 -0.100252 0.363685 19.2789 14.7264 0.0115803
0.615859 -0.0263281 -0.101333 0.368591 19.2312 14.5426 0.0117841
0.601406 -0.0278906 -0.104879 0.374585 19.3301 14.6059 0.0116104
0.589688 -0.0241406 -0.103924 0.376256 19.3739 14.6807 0.011585
0.582109 -0.0266406 -0.103327 0.374232 19.2966 14.6832 0.0116509
0.580703 -0.0275 -0.10512 0.375216 19.2989 14.6366 0.0117461
0.569219 -0.0264062 -0.104555 0.382046 19.2959 14.6518 0.0116347
0.558984 -0.0242188 -0.102875 0.379688 19.2596 14.6465 0.0115416
0.546563 -0.0277344 -0.105181 0.384767 19.2759 14.6216 0.011672
0.55 -0.0242188 -0.104166 0.381629 19.3405 14.7145 0.0117086
0.535703 -0.0278906 -0.101549 0.38626 19.2888 14.6713 0.011702
0.531563 -0.0270312 -0.103426 0.38649 19.2265 14.6431 0.0118022
0.518359 -0.0233594 -0.103956 0.39245 19.3787 14.6219 0.0115501
0.508125 -0.0285156 -0.103818 0.392958 19.2706 14.6694 0.0116992
0.500547 -0.0269531 -0.103151 0.395551 19.3282 14.6841 0.0116483
0.488828 -0.0258594 -0.101936 0.397215 19.3104 14.7017 0.0114755
0.484922 -0.0283594 -0.100241 0.398484 19.4284 14.7334 0.0117242
0.478281 -0.0275781 -0.100484 0.408316 19.2557 14.7339 0.0117593
0.472266 -0.0274219 -0.0994172 0.403431 19.4211 14.6913 0.0116971
0.458984 -0.0250781 -0.100813 0.402541 19.3153 14.7208 0.011687
0.455703 -0.0260937 -0.102953 0.409545 19.3687 14.7577 0.0115969
0.442422 -0.0235156 -0.101226 0.410767 19.4013 14.7323 0.011684
0.440078 -0.0232031 -0.0985674 0.408336 19.3558 14.7746 0.0117176
0.422891 -0.0242188 -0.0974346 0.416165 19.3226 14.7844 0.0116926
0.422656 -0.0264844 -0.0968803 0.418519 19.3457 14.734 0.0116811
0.4075 -0.0225 -0.0981629 0.425474 19.2873 14.7215 0.0117625
0.403594 -0.0255469 -0.100185 0.423321 19.2567 14.8205 0.0117866
0.386719 -0.0265625 -0.0996631 0.421465 19.3382 14.7461 0.011747
0.394219 -0.0222656 -0.09277 0.430614 19.301 14.7861 0.0118475
0.371406 -0.0221875 -0.0972692 0.430184 19.2519 14.8437 0.0119954
0.365312 -0.0250781 -0.0980325 0.43368 19.3283 14.8824 0.0119059
0.355469 -0.0259375 -0.0959837 0.440715 19.3302 14.8007 0.0115825
0.348359 -0.0246875 -0.0941407 0.435805 19.2373 14.801 0.0114867
0.347734 -0.0242188 -0.0943503 0.442995 19.3591 14.8601 0.0116543
0.328281 -0.0242969 -0.0941749 0.446013 19.3506 14.8592 0.0115569
0.330469 -0.0249219 -0.0930024 0.444118 19.269 14.8331 0.0116758
0.310703 -0.0229687 -0.0917302 0.450227 19.3222 14.8846 0.0116438
0.302187 -0.0240625 -0.0924521 0.453183 19.2779 14.9267 0.0117797
0.296797 -0.0225781 -0.0923374 0.451212 19.3726 14.9246 0.0119726
0.289922 -0.0234375 -0.0902204 0.453147 19.3139 14.9245 0.0119079
0.283516 -0.0226562 -0.0922776 0.45857 19.3224 14.8568 0.0118222
0.270391 -0.0241406 -0.0926077 0.468274 19.3085 14.9593 0.0118769
0.264219 -0.0221094 -0.0901038 0.467489 19.2453 14.927 0.0117097
0.258203 -0.0220312 -0.0890707 0.470094 19.2581 14.9252 0.0120236
0.253125 -0.0225781 -0.0879944 0.472076 19.217 14.948 0.0119708
0.234219 -0.0210938 -0.0871833 0.474358 19.3052 15.0241 0.0117236
0.234609 -0.0201563 -0.089474 0.479915 19.276 14.9867 0.0115746
0.227734 -0.0221875 -0.0885946 0.480721 19.2545 14.9619 0.0113658
0.222891 -0.02375 -0.0894673 0.485915 19.3368 15.0117 0.0115312
0.231641 -0.0235938 -0.087245 0.486989 19.3381 14.9676 0.0117148
0.238906 -0.0232031 -0.0855903 0.486904 19.3453 14.9823 0.0116762
0.254219 -0.0242188 -0.086667 0.485172 19.2901 14.9652 0.0117137
0.258437 -0.0234375 -0.0857934 0.486384 19.3183 14.9398 0.0115681
0.264922 -0.0253906 -0.0849571 0.48851 19.3473 14.942 0.0116811
0.274688 -0.0250781 -0.0861212 0.486445 19.322 14.9682 0.0114974
0.283906 -0.0249219 -0.084398 0.484051 19.3067 15.0447 0.0117679
0.290469 -0.0255469 -0.0846161 0.484179 19.284 14.9505 0.0118457
0.303203 -0.0259375 -0.0872299 0.47928 19.2524 14.9312 0.0113395
0.307969 -0.0267187 -0.085242 0.479714 19.3596 14.9571 0.0117065
0.3175 -0.02625 -0.0854297 0.483451 19.2752 14.9213 0.0116058
0.331094 -0.0247656 -0.08469 0.476891 19.2155 14.9577 0.0116066
0.336953 -0.0274219 -0.0844212 0.474456 19.2662 14.9056 0.0116867
0.343516 -0.0271094 -0.0850923 0.473542 19.4742 15.0054 0.0118575
0.352578 -0.0273438 -0.082623 0.471317 19.4215 14.9036 0.0116739
0.36375 -0.0253906 -0.0844494 0.475954 19.343 14.9898 0.0117618
0.36375 -0.0275 -0.0841016 0.472866 19.3076 14.916 0.0118804
0.370781 -0.0271094 -0.082095 0.471708 19.4255 14.9415 0.0119993
0.382422 -0.0282813 -0.0822537 0.466229 19.3794 15.0009 0.0117374
0.393906 -0.0289844 -0.0822916 0.466009 19.2676 14.9253 0.0115474
0.403125 -0.0286719 -0.0852726 0.466341 19.3303 14.9008 0.0118231
0.412109 -0.0278906 -0.0858481 0.459604 19.4292 14.863 0.011803
0.419219 -0.0264844 -0.0812308 0.459363 19.3626 14.9308 0.0119195
0.428828 -0.0285156 -0.0831356 0.464425 19.4095 14.8708 0.01176
0.433984 -0.0299219 -0.0847113 0.455739 19.2861 14.8738 0.0117294
0.443125 -0.030625 -0.0833585 0.46055 19.3641 14.8912 0.0119016
0.449219 -0.0292188 -0.0836592 0.454495 19.4165 14.8987 0.0118394
0.46 -0.0285156 -0.0845087 0.45625 19.3183 14.8945 0.0120164
0.48 -0.0296875 -0.0829079 0.45292 19.3499 14.9196 0.0117709
0.474844 -0.0292188 -0.0842691 0.451816 19.3636 15.0154 0.0119345
0.482578 -0.0303125 -0.0857464 0.450981 19.3694 14.8246 0.0116334
0.490469 -0.0308594 -0.0832306 0.444688 19.3281 14.8707 0.0118329
0.499844 -0.0289063 -0.0853903 0.44373 19.4604 14.8058 0.0116632
0.501875 -0.0299219 -0.0859885 0.442157 19.3131 14.8052 0.0115723
0.516328 -0.0299219 -0.0864244 0.439125 19.2815 14.8003 0.0117526
0.529922 -0.0275781 -0.0869753 0.436416 19.3883 14.9276 0.0115939
0.539062 -0.0304687 -0.0865304 0.438177 19.48 14.8385 0.0118549
0.545547 -0.0303125 -0.0871353 0.432391 19.3024 14.8296 0.0118138
0.543281 -0.0314844 -0.0853908 0.433056 19.3216 14.8412 0.01183
0.559531 -0.0305469 -0.0881095 0.428085 19.3364 14.786 0.011804
0.566719 -0.0310156 -0.0838403 0.425637 19.3959 14.829 0.0116324
0.571953 -0.0291406 -0.0871976 0.427411 19.4103 14.7347 0.0118615
0.583516 -0.0321875 -0.086882 0.42391 19.3281 14.8358 0.0118072
0.593828 -0.0335937 -0.0874171 0.424805 19.2961 14.7863 0.0119441
0.594141 -0.0333594 -0.087275 0.42076 19.3261 14.754 0.0116038
0.615547 -0.0302344 -0.088443 0.419269 19.5332 14.7574 0.0118853
0.609375 -0.0339844 -0.0859982 0.410279 19.36 14.7324 0.0118683
0.622578 -0.0332031 -0.0881788 0.410305 19.405 14.7141 0.0117336
0.631797 -0.0322656 -0.0863385 0.411171 19.3993 14.7857 0.0119211
0.641094 -0.0345312 -0.0870742 0.405755 19.3091 14.7271 0.011731
0.654453 -0.0320312 -0.0895173 0.403341 19.3183 14.6545 0.011619
0.664219 -0.0322656 -0.0891427 0.399574 19.4169 14.7343 0.0116702
0.667656 -0.0325 -0.0887444 0.393416 19.3712 14.6615 0.0116752
0.677969 -0.0335156 -0.0900705 0.397413 19.4127 14.5831 0.0116103
0.684766 -0.0359375 -0.0922189 0.396398 19.2342 14.591 0.0116106
0.696328 -0.0352344 -0.0912374 0.391418 19.2814 14.5895 0.0117922
0.695 -0.0317188 -0.0933547 0.391408 19.2653 14.5539 0.0115931
0.712266 -0.0353125 -0.0927904 0.381147 19.3547 14.6076 0.0115889
0.713828 -0.0325781 -0.0928252 0.380078 19.1943 14.6058 0.0117523
0.726016 -0.0351562 -0.0944819 0.379204 19.1985 14.5932 0.0116309
0.735938 -0.0358594 -0.0954118 0.377501 19.2618 14.6339 0.0117643
0.738984 -0.0380469 -0.0977419 0.374612 19.1924 14.5144 0.0114268
0.745859 -0.0363281 -0.0962811 0.368209 19.2537 14.5971 0.0114929
0.756328 -0.0377344 -0.0968559 0.37044 19.1021 14.5192 0.0113004
0.769531 -0.0394531 -0.0971358 0.366081 19.2247 14.4994 0.0114599
0.777578 -0.0404687 -0.099245 0.360474 19.1216 14.4339 0.0113401
0.785312 -0.0446875 -0.099091 0.365623 19.2292 14.5256 0.0115343
0.78875 -0.0467188 -0.0997765 0.360946 19.171 14.502 0.0113449
0.798672 -0.051875 -0.0989037 0.358294 19.2491 14.532 0.0114515
0.814766 -0.0590625 -0.0959669 0.359537 19.1436 14.4716 0.0112908
0.819766 -0.0644531 -0.0946085 0.357883 19.1846 14.4741 0.0114238
0.824531 -0.0726563 -0.0993448 0.351807 19.0752 14.3562 0.0112085
0.830547 -0.0857031 -0.0978032 0.349167 19.1713 14.5667 0.0111135
0.843984 -0.098125 -0.0991064 0.351966 19.1596 14.5322 0.0110717
0.852031 -0.109688 -0.101996 0.351619 19.1731 14.4771 0.0112594
0.860391 -0.122656 -0.102354 0.352105 19.2206 14.5532 0.0113049
0.860078 -0.142969 -0.100968 0.348168 19.109 14.5113 0.0112974
0.875547 -0.16 -0.0992998 0.348073 19.0874 14.4967 0.0111769
0.882969 -0.179219 -0.101587 0.350652 19.0956 14.5041 0.011244
0.893828 -0.199609 -0.101188 0.347126 19.0973 14.5039 0.0111036
0.896563 -0.220703 -0.100663 0.343065 19.0877 14.4523 0.0112756
0.915469 -0.241172 -0.101527 0.34335 19.0971 14.3779 0.0108857
0.926328 -0.26625 -0.103919 0.343558 19.0152 14.4054 0.0111147
0.932344 -0.291484 -0.105521 0.347654 19.0141 14.4607 0.0110509
0.939141 -0.312734 -0.107347 0.345009 19.1431 14.4551 0.0111269
0.942813 -0.3375 -0.107048 0.347618 19.1073 14.5177 0.0112431
0.945312 -0.359766 -0.10863 0.342887 19.0876 14.4826 0.0112982
0.955781 -0.382422 -0.10633 0.344557 19.0708 14.3566 0.0111238
0.953359 -0.361094 -0.107055 0.338278 19.0613 14.4286 0.0112392
0.938125 -0.319141 -0.108799 0.334437 19.1532 14.4274 0.0111048
0.937266 -0.280859 -0.109581 0.34045 19.1234 14.4668 0.0108503
0.927813 -0.248281 -0.108583 0.333306 18.9772 14.3953 0.0111157
0.925 -0.222891 -0.109499 0.340389 19.0574 14.3324 0.0111146
0.912422 -0.198125 -0.186146 0.259774 18.243 14.1635 0.00598981
0.91 -0.173125 -0.187032 0.277263 18.252 14.1642 0.00548003
0.899453 -0.155312 -0.178711 0.2803 18.2051 14.1791 0.00597395
0.89 -0.133594 -0.145019 0.273671 18.6491 14.1946 0.00513484
0.881328 -0.119219 -0.0851793 0.31835 18.8582 14.3269 0.00355698
0.874844 -0.104688 -0.0631552 0.351776 18.6976 12.6808 0.001171
0.870313 -0.0948438 -0.00769948 0.277737 19.6806 15.1571 0.00054559
0.861953 -0.0823438 0.0132053 0.371117 19.4721 10.6245 0.000296586
0.850156 -0.0717969 0.0875508 0.20892 23.2211 13.8339 0.000263982
0.844063 -0.0648438 -0.0205781 0.469239 17.6403 12.5309 0.000692181
0.835391 -0.0567187 -0.0610326 0.355123 18.5003 13.2081 0.0011298
0.821719 -0.0514844 -0.0704571 0.323633 19.0103 14.1961 0.00246666
0.807578 -0.0501562 -0.0810238 0.339219 19.2217 14.3715 0.00396799
0.810391 -0.0448438 -0.084975 0.344858 19.1939 14.4141 0.00584249
0.804688 -0.0392969 -0.0849336 0.327556 19.0812 14.4661 0.00821961
0.791641 -0.0382031 -0.0837161 0.337209 19.1125 14.4074 0.00940731
0.777891 -0.036875 -0.088909 0.336095 18.9711 14.561 0.0101785
0.773828 -0.0355469 -0.0933946 0.344775 19.0313 14.415 0.0106399
0.768125 -0.0332031 -0.0982416 0.341861 19.0189 14.4602 0.0110017
0.760547 -0.0335156 -0.10065 0.350819 19.175 14.4933 0.0110002
0.748672 -0.0332031 -0.100177 0.344577 19.1479 14.503 0.0110848
0.747031 -0.0298438 -0.101483 0.341809 19.137 14.5061 0.0109843
0.730781 -0.0311719 -0.103433 0.355085 19.2323 14.5306 0.0109711
0.721719 -0.0292188 -0.109047 0.357236 19.1678 14.4288 0.0112086
0.71875 -0.0299219 -0.108727 0.353028 19.268 14.5523 0.0112354
0.703359 -0.0299219 -0.108165 0.3561 19.1164 14.569 0.0111957
0.701172 -0.0301562 -0.106022 0.357616 19.0678 14.5261 0.0111354
0.700781 -0.0264062 -0.105174 0.361277 19.2165 14.4905 0.0111036
0.694297 -0.0294531 -0.10682 0.358291 19.2142 14.502 0.0113782
0.675078 -0.0299219 -0.104593 0.355253 19.1883 14.4858 0.0114184
0.675781 -0.0282031 -0.108958 0.358493 19.1483 14.566 0.0111554
0.657734 -0.0289063 -0.106343 0.364249 19.2392 14.511 0.0112554
0.653516 -0.0285938 -0.103534 0.364216 19.1825 14.5606 0.0113697
0.650312 -0.0295313 -0.103115 0.366939 19.2073 14.577 0.0111963
0.631406 -0.0275781 -0.103179 0.366955 19.1353 14.4815 0.0112814
0.630078 -0.0284375 -0.102756 0.36699 19.1713 14.6226 0.0115443
0.618281 -0.0277344 -0.102201 0.367979 19.3381 14.578 0.0115213
0.615234 -0.0275 -0.104011 0.371044 19.2587 14.6332 0.01148
0.602891 -0.028125 -0.102538 0.37388 19.2377 14.7336 0.0114409
0.598047 -0.0269531 -0.101351 0.369289 19.2898 14.6468 0.0113887
0.582422 -0.0246875 -0.103426 0.378105 19.2826 14.555 0.0113215
0.572266 -0.02875 -0.100147 0.38015 19.3095 14.6645 0.0115438
0.572422 -0.0276563 -0.101006 0.385769 19.2715 14.6609 0.0114533
0.563672 -0.0274219 -0.100504 0.382359 19.2489 14.7352 0.011606
0.553125 -0.0252344 -0.0985749 0.384241 19.2936 14.652 0.0116207
0.550469 -0.028125 -0.0988881 0.391911 19.2549 14.6672 0.0113713
0.536563 -0.0271094 -0.0971709 0.388446 19.4096 14.7394 0.0114766
0.533125 -0.0278125 -0.0976639 0.386112 19.2833 14.6922 0.0112757
0.524687 -0.0253125 -0.0940977 0.390848 19.2273 14.7284 0.0112281
0.512734 -0.0269531 -0.0948416 0.396904 19.2759 14.7227 0.011473
0.514609 -0.0264844 -0.0969704 0.399044 19.3288 14.716 0.0115978
0.497422 -0.0284375 -0.0941848 0.393445 19.319 14.7038 0.0113957
0.494922 -0.0278125 -0.0945195 0.403348 19.2587 14.741 0.0116106
0.479219 -0.0274219 -0.0925634 0.406186 19.243 14.7898 0.0115083
0.469141 -0.0276563 -0.0912938 0.40267 19.2981 14.6567 0.0114834
0.464219 -0.0252344 -0.0900245 0.410044 19.4759 14.7278 0.011437
0.4525 -0.0254688 -0.0892415 0.406696 19.3014 14.7892 0.0114013
0.442969 -0.0255469 -0.0868004 0.411307 19.3797 14.7529 0.0114825
0.440703 -0.0260937 -0.0826735 0.412194 19.2466 14.7953 0.0109783
0.433594 -0.0263281 -0.0799983 0.415474 19.3068 14.7256 0.0108668
0.423281 -0.0247656 -0.0724552 0.41626 19.3444 14.8943 0.0106539
0.421172 -0.0255469 -0.073718 0.413252 19.3335 14.796 0.00991353
0.411172 -0.0255469 -0.0714066 0.415935 19.3275 14.7583 0.00956318
0.393594 -0.0228125 -0.0696328 0.42589 19.2252 14.7827 0.00914232
0.389141 -0.024375 -0.068087 0.420729 19.2079 14.7911 0.00876258
0.378984 -0.0242188 -0.0667076 0.42364 19.1752 14.7532 0.00859396
0.368594 -0.0242188 -0.0680316 0.430449 19.3443 14.9419 0.00842032
0.359609 -0.0248438 -0.0704156 0.428919 19.2562 14.8613 0.00881507
0.350156 -0.0258594 -0.0680469 0.435264 19.2841 14.7292 0.00894758
0.348359 -0.0245313 -0.0699075 0.436733 19.304 14.8622 0.009418
0.336797 -0.0246875 -0.0695911 0.434542 19.3093 14.9592 0.00956189
0.326094 -0.0225 -0.0743322 0.441694 19.3475 14.9417 0.0103076
0.314609 -0.02125 -0.0747683 0.448832 19.3136 14.8714 0.0105475
0.312188 -0.0232812 -0.0804688 0.454018 19.3206 14.9607 0.0111359
0.295938 -0.0236719 -0.0831494 0.458102 19.3735 14.9995 0.0114222
0.292734 -0.0232812 -0.0869536 0.459749 19.3231 14.9045 0.0116436
0.285234 -0.0235156 -0.0906181 0.465494 19.325 14.9492 0.0118398
0.290234 -0.0223437 -0.0951413 0.465001 19.3028 14.9166 0.011719
0.272734 -0.0220312 -0.0948431 0.464798 19.4211 14.9395 0.0119424
0.259688 -0.0235938 -0.0962658 0.464812 19.3867 14.892 0.0116968
0.254609 -0.0198438 -0.0971493 0.464287 19.353 14.8199 0.0120692
0.244688 -0.0216406 -0.100359 0.462999 19.3569 14.9701 0.0122448
0.239141 -0.0215625 -0.0994041 0.46551 19.3578 14.9958 0.0122449
0.236016 -0.0234375 -0.098539 0.469755 19.2897 14.9462 0.0121319
0.221484 -0.0234375 -0.099282 0.468415 19.3571 14.9327 0.0120111
0.228594 -0.0208594 -0.100284 0.478435 19.3282 15.0186 0.0120986
0.233828 -0.0213281 -0.0967022 0.478324 19.2961 14.9403 0.0118536
0.251328 -0.025625 -0.0969498 0.476231 19.3246 14.9088 0.0122516
0.256406 -0.0223437 -0.097978 0.480155 19.3984 14.9226 0.0119664
0.250703 -0.0249219 -0.0953377 0.475662 19.4041 15.0029 0.0123093
0.2675 -0.0260156 -0.0917963 0.475447 19.4083 14.8914 0.0122432
0.275078 -0.024375 -0.0909577 0.479915 19.3186 15.0112 0.0120216
0.285 -0.0241406 -0.0879559 0.471616 19.4551 15.058 0.0120175
0.293047 -0.0252344 -0.089866 0.477227 19.3319 14.9764 0.0119592
0.304688 -0.0261719 -0.0897803 0.474393 19.4072 14.9704 0.0121213
0.309688 -0.0261719 -0.0857023 0.47979 19.457 15.0579 0.0119164
0.31875 -0.0275 -0.086763 0.474917 19.3691 14.9349 0.0120122
0.329453 -0.0267969 -0.0864003 0.478595 19.3012 14.9448 0.0117017
0.334219 -0.0269531 -0.0884309 0.479116 19.2186 14.9745 0.0116546
0.343828 -0.0274219 -0.0854147 0.478628 19.2567 14.978 0.0116799
0.354844 -0.0275781 -0.0869723 0.472529 19.4195 14.9697 0.0117066
0.359844 -0.0286719 -0.083041 0.476359 19.2881 14.9856 0.0118549
0.365078 -0.0275781 -0.0855346 0.474124 19.3561 14.8729 0.0117844
0.378984 -0.0253906 -0.0835871 0.475976 19.3209 14.9935 0.0115765
0.388437 -0.0284375 -0.0850442 0.471722 19.4054 15.007 0.0120595
0.386875 -0.0292188 -0.0831726 0.469129 19.4244 14.9183 0.0117583
0.395547 -0.0250781 -0.0839674 0.460593 19.3827 14.9489 0.0118785
0.403984 -0.0280469 -0.079917 0.46425 19.4484 14.9278 0.0117496
0.419063 -0.0266406 -0.0816907 0.461366 19.3696 14.9347 0.0118749
0.425625 -0.029375 -0.0820688 0.468813 19.452 14.9184 0.0119431
0.431797 -0.0273438 -0.0835997 0.45814 19.3923 14.878 0.0120435
0.446016 -0.0297656 -0.0819565 0.460231 19.3631 14.9028 0.0119241
0.455391 -0.0296094 -0.0833086 0.45876 19.4368 14.9159 0.0118986
0.459062 -0.0298438 -0.0817915 0.459073 19.3379 14.8703 0.0118553
0.461484 -0.0307812 -0.0845464 0.456353 19.4265 14.8828 0.0119978
0.472813 -0.0296094 -0.0826683 0.45343 19.4429 14.9287 0.0118205
0.483516 -0.0303906 -0.0848559 0.450893 19.3657 14.8807 0.0118727
0.491172 -0.0314844 -0.0866976 0.447894 19.3331 14.9825 0.0117431
0.502812 -0.0297656 -0.0856709 0.448192 19.3792 14.9302 0.0120478
0.511641 -0.0315625 -0.0863394 0.441728 19.3715 14.8127 0.0119032
0.515703 -0.0296094 -0.0852956 0.440414 19.4406 14.9276 0.0118421
0.529766 -0.0314063 -0.0876627 0.442114 19.3357 14.8318 0.0117444
0.534219 -0.0296875 -0.0877504 0.439364 19.4494 14.8579 0.0119719
0.540234 -0.03125 -0.0879623 0.437783 19.4091 14.8642 0.0118359
0.545703 -0.0307812 -0.0886666 0.434078 19.3141 14.814 0.0118074
0.563672 -0.031875 -0.0880091 0.433706 19.3723 14.8651 0.0119082
0.574063 -0.0309375 -0.0906764 0.427208 19.3056 14.8597 0.0119476
0.565859 -0.0316406 -0.0888189 0.431194 19.2935 14.814 0.0120547
0.566953 -0.0292188 -0.0886081 0.429824 19.3436 14.7974 0.0117229
0.565156 -0.0278906 -0.089664 0.422862 19.3102 14.7587 0.0118741
0.562578 -0.0280469 -0.0899861 0.425468 19.3456 14.8005 0.0119644
0.565547 -0.0272656 -0.0889807 0.420662 19.4363 14.8186 0.0118749
0.568438 -0.0301562 -0.087427 0.42031 19.476 14.7844 0.0118805
0.565547 -0.0288281 -0.0845743 0.42217 19.3475 14.8078 0.0117093
0.568359 -0.0291406 -0.089923 0.424229 19.2585 14.7698 0.0119092
0.568906 -0.0289063 -0.0877281 0.423799 19.3738 14.7318 0.0118988
0.56625 -0.0309375 -0.0888438 0.422771 19.3491 14.7873 0.0116577
0.563438 -0.029375 -0.0893843 0.418626 19.2867 14.8349 0.0117197