File: scripts/CV_XRD/data/ascii/I20180835_243_CV_XRD.dat
# I20180835 #243 CV with XRD
# Potential / V, Current Density / mA/cm^2, Strain ip / %, Strain oop / %, d ip / nm, d oop / nm, Intensity (area ip)
0.739141 -0.0271094 -0.12965 0.333765 19.2559 14.4499 0.00831828
0.74625 -0.0315625 -0.131506 0.336633 19.3244 14.5214 0.00844277
0.751328 -0.0317969 -0.127762 0.331587 19.142 14.4582 0.00849722
0.755078 -0.031875 -0.130262 0.327893 19.2249 14.4417 0.00839664
0.775703 -0.0296094 -0.130926 0.328513 19.2538 14.4474 0.00847021
0.778906 -0.0321875 -0.129401 0.323146 19.3455 14.4576 0.00829467
0.787109 -0.0323437 -0.129129 0.326401 19.1794 14.5256 0.00831282
0.791953 -0.0307812 -0.127124 0.324924 19.2428 14.5128 0.00855009
0.803125 -0.0310156 -0.129906 0.31547 19.24 14.4516 0.00837107
0.808906 -0.0324219 -0.131013 0.316898 19.1818 14.3396 0.00815708
0.817422 -0.0338281 -0.13025 0.319626 19.1179 14.3778 0.00847356
0.826406 -0.0352344 -0.130247 0.312574 19.2643 14.3389 0.00832828
0.836016 -0.0347656 -0.132611 0.30974 19.2195 14.5352 0.00835967
0.847187 -0.0350781 -0.13232 0.311792 19.3301 14.4443 0.00836916
0.860078 -0.0350781 -0.135714 0.29953 19.1482 14.5359 0.00834848
0.863906 -0.0376563 -0.133093 0.307217 19.2753 14.3876 0.00825467
0.867656 -0.0358594 -0.132931 0.303171 19.2276 14.4715 0.00845839
0.874766 -0.0375781 -0.1301 0.300546 19.2402 14.3462 0.00832986
0.888516 -0.0395313 -0.130446 0.294226 19.2407 14.4249 0.00826239
0.896094 -0.039375 -0.128817 0.29312 19.111 14.4565 0.00802564
0.904766 -0.0380469 -0.131202 0.290187 19.1034 14.4829 0.00827629
0.912969 -0.0398438 -0.132445 0.285813 19.1234 14.533 0.00827594
0.92 -0.0376563 -0.136081 0.289166 19.142 14.481 0.00802989
0.926094 -0.0371094 -0.136701 0.277477 19.0029 14.4311 0.00802632
0.944531 -0.0390625 -0.1349 0.277072 19.1429 14.3323 0.00802648
0.949219 -0.0413281 -0.137618 0.273419 19.093 14.3687 0.00781935
0.953984 -0.03875 -0.14196 0.277918 19.1136 14.3374 0.00792779
0.961562 -0.0425781 -0.13623 0.27353 18.902 14.2001 0.00813948
0.972969 -0.0400781 -0.139655 0.270589 19.0786 14.2221 0.00783938
0.981172 -0.0439063 -0.14312 0.263312 19.0695 14.2946 0.00795696
0.993281 -0.044375 -0.142441 0.258416 19.0866 14.3772 0.00808842
0.990703 -0.0457813 -0.142261 0.263897 19.1357 14.3283 0.00796332
1.00484 -0.0503125 -0.143371 0.257305 19.0159 14.2681 0.00807002
1.01328 -0.0520313 -0.138906 0.259826 19.1792 14.4131 0.00816644
1.01859 -0.0565625 -0.142114 0.252665 19.1292 14.3835 0.00795916
1.02687 -0.0598438 -0.147498 0.251276 19.1626 14.2919 0.00793467
1.03641 -0.065625 -0.150197 0.251042 19.1025 14.234 0.00786068
1.04422 -0.0738281 -0.149181 0.245164 19.0305 14.3311 0.00792706
1.05281 -0.0802344 -0.151485 0.252948 18.9618 14.3094 0.00771194
1.06031 -0.0954688 -0.150824 0.243124 19.0707 14.2964 0.00787671
1.06727 -0.105547 -0.151711 0.243355 18.9246 14.2645 0.00769615
1.07383 -0.124375 -0.154706 0.248872 18.9718 14.3509 0.00783981
1.08898 -0.137187 -0.159895 0.239744 18.9557 14.3311 0.00789469
1.09656 -0.158047 -0.156287 0.240242 18.9583 14.3847 0.00779501
1.10828 -0.178672 -0.159228 0.246775 19.0282 14.2714 0.00786235
1.10641 -0.199688 -0.161191 0.244347 18.9878 14.2941 0.00783622
1.11516 -0.223125 -0.16008 0.243214 18.9777 14.1981 0.00770977
1.12773 -0.241641 -0.161645 0.239932 18.857 14.2543 0.00770981
1.13164 -0.267031 -0.160909 0.241056 19.0411 14.2727 0.00773997
1.14703 -0.294922 -0.166954 0.249649 18.9114 14.2555 0.00769904
1.15664 -0.319688 -0.163407 0.246205 18.9208 14.2269 0.00768409
1.16414 -0.339844 -0.164207 0.237496 19.0679 14.2272 0.0078798
1.16727 -0.367031 -0.166061 0.238168 19.0418 14.2418 0.00770476
1.17836 -0.388281 -0.167236 0.24255 19.0358 14.1767 0.0076213
1.18031 -0.412969 -0.168747 0.241648 19.0495 14.2012 0.00801585
1.18719 -0.428516 -0.162895 0.232077 19.1638 14.3715 0.00792941
1.19844 -0.442188 -0.164235 0.232091 19.0461 14.1632 0.00775792
1.2057 -0.452266 -0.165214 0.234926 19.2716 14.3429 0.00767939
1.21828 -0.455156 -0.166081 0.228926 19.1693 14.132 0.00795342
1.21359 -0.397656 -0.168759 0.226845 19.1853 14.261 0.0078312
1.2068 -0.349297 -0.168007 0.236146 19.1379 14.2503 0.00779968
1.20047 -0.309531 -0.164786 0.228848 18.9307 14.1856 0.00780979
1.18172 -0.277891 -0.163765 0.232044 19.0025 14.2056 0.00800532
1.17102 -0.249766 -0.166358 0.234401 18.9853 14.1954 0.00794255
1.17398 -0.225469 -0.166385 0.233416 19.2063 14.3401 0.00804665
1.15625 -0.204766 -0.167341 0.229652 19.0394 14.2191 0.00802748
1.15336 -0.183047 -0.166203 0.229106 19.0722 14.2343 0.0076358
1.14609 -0.16375 -0.164017 0.230767 19.0184 14.2493 0.00798655
1.14531 -0.147422 -0.165817 0.234235 19.0737 14.3099 0.00784688
1.12867 -0.131328 -0.165656 0.227689 19.0763 14.2412 0.00803138
1.11664 -0.114844 -0.168261 0.235669 19.2414 14.2386 0.0080805
1.11531 -0.103984 -0.166886 0.230624 19.1654 14.2638 0.00798332
1.10594 -0.0921094 -0.167134 0.238875 19.1584 14.3029 0.00818745
1.09062 -0.0820312 -0.169716 0.227463 19.0882 14.296 0.00799552
1.0868 -0.075625 -0.166618 0.237579 18.8465 14.1137 0.00792588
1.07594 -0.068125 -0.171774 0.233038 19.1978 14.2708 0.00792671
1.07453 -0.0639062 -0.167111 0.234363 19.1893 14.1974 0.00797339
1.06352 -0.0557031 -0.167354 0.23212 19.0776 14.157 0.00806115
1.05797 -0.0539063 -0.165194 0.238238 19.2822 14.2738 0.00806773
1.04625 -0.0495312 -0.167057 0.23493 19.2179 14.2696 0.00787615
1.03812 -0.0450781 -0.165224 0.239198 19.1608 14.2739 0.00789993
1.02867 -0.0427344 -0.166344 0.239234 19.2722 14.3588 0.0078367
1.02609 -0.0389844 -0.166798 0.245922 18.9623 14.1761 0.0079896
1.01063 -0.0380469 -0.168836 0.240533 19.0861 14.1648 0.00793285
1.00641 -0.0357813 -0.169475 0.239459 19.2055 14.2325 0.00808964
0.994141 -0.0377344 -0.166633 0.249725 19.064 14.2357 0.00787507
0.993906 -0.035625 -0.165575 0.247045 19.023 14.3407 0.00800921
0.985469 -0.0355469 -0.16662 0.242104 18.949 14.2806 0.00805272
0.9675 -0.0324219 -0.169103 0.241215 19.1115 14.275 0.00806305
0.963828 -0.0324219 -0.168762 0.249027 19.0281 14.2445 0.00807476
0.960156 -0.03125 -0.166233 0.246887 19.1163 14.2497 0.0079925
0.952187 -0.0321094 -0.165999 0.250156 18.9628 14.2078 0.00823024
0.939375 -0.0311719 -0.163219 0.248316 19.0734 14.3434 0.00793714
0.934531 -0.030625 -0.169211 0.253417 19.0073 14.1943 0.00816536
0.917344 -0.0294531 -0.166166 0.251677 19.0686 14.395 0.00806534
0.910781 -0.0308594 -0.167494 0.255985 19.0359 14.2144 0.00804689
0.897422 -0.0296094 -0.164669 0.257207 19.0615 14.2701 0.00824431
0.892734 -0.0307812 -0.167209 0.256207 19.0603 14.2483 0.00819832
0.892422 -0.0296875 -0.164467 0.257259 19.1337 14.3441 0.00810056
0.879141 -0.0307031 -0.163802 0.269084 19.0629 14.356 0.00816238
0.871563 -0.0285156 -0.163998 0.260381 18.9831 14.365 0.00814373
0.860703 -0.0278125 -0.164544 0.270927 19.048 14.3193 0.00853491
0.86375 -0.0277344 -0.162466 0.264577 19.0144 14.4199 0.00829928
0.844453 -0.0275 -0.163095 0.26869 19.1603 14.3695 0.00832382
0.835938 -0.0278125 -0.162612 0.280896 19.1818 14.2387 0.00835318
0.823906 -0.0254688 -0.161491 0.274335 19.075 14.3702 0.00825011
0.826953 -0.02625 -0.160476 0.27698 19.1058 14.3949 0.0084008
0.817266 -0.0271094 -0.161449 0.287705 19.1103 14.3083 0.00835183
0.806875 -0.0277344 -0.162808 0.285167 19.0917 14.3127 0.00851665
0.796328 -0.0269531 -0.160815 0.284189 19.2393 14.3796 0.0084944
0.792109 -0.0278125 -0.156637 0.285431 19.1813 14.3866 0.00836873
0.778359 -0.0286719 -0.159385 0.286857 19.1079 14.3729 0.00840047
0.77125 -0.0267187 -0.15929 0.300104 19.1295 14.3182 0.00834836
0.765313 -0.028125 -0.162127 0.297378 19.1419 14.4613 0.00815989
0.757578 -0.0288281 -0.1604 0.297428 19.1057 14.3253 0.0083375
0.753047 -0.0267969 -0.158355 0.298273 19.1838 14.4407 0.00849265
0.739375 -0.02875 -0.159436 0.302092 19.2073 14.4479 0.00834151
0.738203 -0.0283594 -0.156674 0.299625 19.2164 14.4074 0.00829059
0.726328 -0.0272656 -0.15732 0.310273 19.1402 14.3024 0.00827094
0.720859 -0.0278906 -0.156801 0.31196 19.2193 14.4869 0.00833155
0.707813 -0.0274219 -0.155818 0.309296 19.0409 14.396 0.0084687
0.701094 -0.0258594 -0.155465 0.321194 19.2567 14.3413 0.00858879
0.695547 -0.0244531 -0.151867 0.324309 19.1303 14.404 0.00812898
0.684297 -0.0257031 -0.154954 0.322026 19.1518 14.3492 0.00824609
0.677266 -0.0282031 -0.153558 0.326708 19.1761 14.5567 0.00846139
0.662656 -0.0278125 -0.153849 0.328092 19.2454 14.5302 0.00825881
0.66375 -0.0266406 -0.151497 0.332617 19.1684 14.4169 0.00842935
0.657891 -0.0247656 -0.147997 0.327828 19.1096 14.468 0.00835801
0.644297 -0.0242969 -0.147002 0.330937 19.2948 14.5364 0.00857613
0.633594 -0.0270312 -0.14894 0.331519 19.0997 14.374 0.00830551
0.623984 -0.0244531 -0.145794 0.34049 19.2347 14.5097 0.00846203
0.624766 -0.0255469 -0.149425 0.341717 19.2717 14.438 0.00853867
0.612969 -0.0254688 -0.145365 0.346859 19.1873 14.5003 0.00850671
0.602578 -0.0260156 -0.148654 0.357673 19.3247 14.4837 0.00853895
0.595781 -0.0258594 -0.142393 0.351557 19.2656 14.569 0.00827246
0.583828 -0.0252344 -0.145662 0.354302 19.2335 14.6348 0.0087014
0.579766 -0.0246875 -0.143396 0.35971 19.1753 14.5253 0.0085936
0.570547 -0.0267969 -0.140463 0.362305 19.2382 14.56 0.00857856
0.568438 -0.0242969 -0.139959 0.360546 19.2585 14.5556 0.00855155
0.546953 -0.025625 -0.138331 0.37263 19.1062 14.5885 0.00839245
0.544297 -0.0253125 -0.139315 0.375819 19.2555 14.5949 0.00856865
0.539922 -0.02625 -0.134726 0.379529 19.3537 14.6598 0.00869599
0.525 -0.0232812 -0.138994 0.388391 19.3444 14.5333 0.00873017
0.517031 -0.0242188 -0.134975 0.386536 19.254 14.6771 0.00868059
0.509297 -0.0245313 -0.134677 0.394497 19.294 14.5881 0.00865638
0.508594 -0.0239063 -0.131531 0.390844 19.3083 14.7154 0.00893174
0.49375 -0.0247656 -0.129545 0.394888 19.3882 14.6881 0.00892988
0.484063 -0.0228906 -0.12917 0.40208 19.2882 14.6981 0.00889561
0.473594 -0.0228125 -0.127188 0.408604 19.3077 14.7454 0.00900936
0.470625 -0.0234375 -0.127346 0.412752 19.3968 14.7277 0.00892606
0.463828 -0.0242969 -0.125795 0.413694 19.3592 14.6844 0.00876803
0.452813 -0.0235156 -0.122607 0.421862 19.3039 14.7413 0.00882118
0.442031 -0.0245313 -0.127028 0.423354 19.2708 14.782 0.00893085
0.43875 -0.02375 -0.124971 0.430763 19.2051 14.6621 0.00872581
0.435234 -0.023125 -0.120078 0.432539 19.3779 14.742 0.0090764
0.422031 -0.023125 -0.121089 0.4346 19.3872 14.7159 0.00867599
0.416172 -0.0226562 -0.121497 0.439156 19.2871 14.7851 0.00891644
0.401875 -0.0242188 -0.119998 0.453012 19.314 14.8528 0.00869978
0.393516 -0.0235156 -0.115888 0.44893 19.2826 14.8494 0.00856554
0.390859 -0.0228125 -0.115708 0.458907 19.3265 14.7607 0.00876467
0.393906 -0.0264062 -0.114917 0.460932 19.3023 14.8796 0.00860396
0.388984 -0.0267969 -0.112604 0.457308 19.3232 14.8999 0.0086745
0.409766 -0.0263281 -0.114131 0.461504 19.2817 14.799 0.00874541
0.419219 -0.0269531 -0.110267 0.455813 19.227 14.7185 0.00877241
0.424063 -0.0277344 -0.111795 0.452466 19.2507 14.7908 0.00876158
0.435938 -0.025625 -0.111786 0.45428 19.3246 14.8994 0.00864966
0.439688 -0.0279688 -0.111514 0.456747 19.3444 14.8207 0.00889715
0.45125 -0.0271094 -0.112754 0.451894 19.3888 14.8118 0.00878232
0.467891 -0.0278906 -0.110239 0.44228 19.3485 14.8495 0.00886941
0.473906 -0.0282031 -0.112264 0.447914 19.3935 14.8104 0.00869203
0.480469 -0.0282813 -0.112456 0.443724 19.2928 14.8234 0.00861246
0.487422 -0.0275781 -0.113631 0.446885 19.328 14.7162 0.00864762
0.488828 -0.0282031 -0.115723 0.441738 19.3209 14.7995 0.00885757
0.497188 -0.028125 -0.111255 0.439942 19.2901 14.825 0.00889677
0.512578 -0.0296875 -0.111971 0.438939 19.365 14.8268 0.00841312
0.522344 -0.0296094 -0.111746 0.430666 19.4171 14.8029 0.00879817
0.535781 -0.0279688 -0.114816 0.424313 19.2828 14.7411 0.00870586
0.536172 -0.0289844 -0.115208 0.426739 19.2597 14.7666 0.00877234
0.550312 -0.0300781 -0.112789 0.42006 19.3588 14.7718 0.00889061
0.556953 -0.0297656 -0.114145 0.42581 19.2749 14.7513 0.00886149
0.562734 -0.030625 -0.116678 0.420523 19.3745 14.8083 0.00880755
0.566641 -0.0285938 -0.116097 0.418614 19.3862 14.7922 0.00888489
0.582813 -0.0314844 -0.114155 0.406674 19.3452 14.708 0.00889241
0.587656 -0.0307031 -0.11215 0.40629 19.406 14.7803 0.00868538
0.587578 -0.0292969 -0.112249 0.402717 19.3337 14.6568 0.00882487
0.609922 -0.0296875 -0.114037 0.397564 19.4444 14.7106 0.00877476
0.607656 -0.0300781 -0.113318 0.403496 19.4699 14.665 0.00874356
0.619062 -0.0304687 -0.116255 0.3979 19.3916 14.7702 0.0088095
0.624609 -0.0317188 -0.116214 0.388551 19.3966 14.766 0.00884681
0.639766 -0.0308594 -0.116866 0.382621 19.3179 14.7055 0.00870502
0.643047 -0.0317188 -0.121733 0.384745 19.3216 14.6451 0.00887195
0.657656 -0.0302344 -0.118203 0.388794 19.3783 14.6605 0.00885243
0.660156 -0.0329687 -0.117077 0.372161 19.2661 14.6594 0.00881083
0.673125 -0.0325 -0.122808 0.38079 19.2268 14.662 0.00886384
0.680156 -0.0320312 -0.122872 0.374646 19.361 14.5658 0.00862731
0.69125 -0.03125 -0.123117 0.368249 19.1442 14.5684 0.00881246
0.691641 -0.0325781 -0.123746 0.373987 19.1754 14.5627 0.00890098
0.705859 -0.0301562 -0.123791 0.368333 19.3746 14.5176 0.00883678
0.712812 -0.0309375 -0.123633 0.359738 19.2579 14.5494 0.00890045
0.719453 -0.0316406 -0.125171 0.359999 19.2375 14.56 0.00881466
0.735391 -0.0330469 -0.12484 0.359667 19.1319 14.5674 0.00852467
0.731016 -0.0328125 -0.122853 0.354395 19.2444 14.5919 0.00869148
0.744844 -0.0328906 -0.124286 0.350498 19.2355 14.5044 0.00853706
0.749922 -0.0332812 -0.12763 0.34837 19.2121 14.5658 0.00866558
0.759531 -0.0326562 -0.125484 0.343428 19.3169 14.5274 0.00868587
0.770781 -0.0321875 -0.126234 0.34004 19.165 14.4093 0.00885087
0.779375 -0.0332031 -0.127685 0.340455 19.3487 14.583 0.00869127
0.787734 -0.0353906 -0.129005 0.328165 19.2922 14.4919 0.0087636
0.790781 -0.0332812 -0.128122 0.336711 19.1624 14.5272 0.00862414
0.796094 -0.0339062 -0.127131 0.326992 19.1818 14.4895 0.00852224
0.807734 -0.0351562 -0.126928 0.329691 19.0888 14.471 0.00879001
0.817813 -0.0347656 -0.128699 0.325976 19.1622 14.4583 0.00853176
0.818906 -0.0367969 -0.132578 0.32226 19.303 14.4654 0.00880264
0.834766 -0.0367188 -0.131444 0.323252 19.109 14.543 0.00861399
0.842656 -0.0346094 -0.130079 0.313761 19.2353 14.4849 0.0086396
0.849219 -0.0392969 -0.131888 0.313455 19.1805 14.4685 0.0084192
0.860391 -0.0382031 -0.131738 0.302831 19.1371 14.5174 0.008553
0.867266 -0.0376563 -0.128896 0.303816 19.1324 14.3763 0.00839267
0.882734 -0.0392188 -0.133631 0.303658 19.1694 14.4389 0.00839025
0.890703 -0.0385938 -0.132026 0.296015 19.1027 14.3917 0.00832027
0.893516 -0.0383594 -0.131839 0.293708 19.3142 14.5037 0.00825821
0.899531 -0.0415625 -0.134544 0.300432 19.2991 14.4642 0.00829893
0.90625 -0.04125 -0.133275 0.287969 19.0938 14.3809 0.00835176
0.916484 -0.0408594 -0.135444 0.28483 19.1559 14.2992 0.00828506
0.923828 -0.0383594 -0.134534 0.276416 19.1402 14.3169 0.0082328
0.936406 -0.0382813 -0.134835 0.280163 19.154 14.4055 0.00825871
0.944297 -0.0390625 -0.1373 0.268687 19.1106 14.3671 0.00827263
0.948125 -0.0407031 -0.139511 0.275149 19.1278 14.3939 0.00813999
0.952422 -0.04 -0.142127 0.265754 19.11 14.3062 0.00819254
0.964922 -0.0438281 -0.142161 0.266538 19.1653 14.3763 0.00810301
0.970938 -0.0434375 -0.141836 0.263141 19.0318 14.2626 0.00826293
0.983594 -0.0420312 -0.144447 0.26493 19.0329 14.3269 0.00833968
0.992969 -0.0480469 -0.144306 0.260168 19.0361 14.3111 0.00814885
0.992812 -0.0464063 -0.147864 0.253178 19.0733 14.324 0.00804191
1.01023 -0.0516406 -0.147655 0.258052 19.2008 14.3798 0.00837184
1.01937 -0.0532813 -0.148267 0.25249 19.0744 14.2339 0.00819103
1.02258 -0.0613281 -0.151455 0.253294 18.9803 14.3144 0.00819212
1.03227 -0.0621875 -0.151668 0.254971 19.0156 14.247 0.00831005
1.04555 -0.0748438 -0.152641 0.24861 19.0218 14.2877 0.00812606
1.03859 -0.0814062 -0.156316 0.247782 19.0085 14.3106 0.00804659
1.0625 -0.0939062 -0.15663 0.246169 19.0527 14.2348 0.00819775
1.06789 -0.106719 -0.155045 0.240317 18.9233 14.1232 0.0081652
1.07906 -0.12125 -0.159078 0.248199 19.0328 14.2752 0.00797876
1.08523 -0.137734 -0.158305 0.247429 18.9818 14.2381 0.00800201
1.09141 -0.155078 -0.160751 0.242086 18.944 14.1491 0.00792203
1.09617 -0.176484 -0.162486 0.239439 19.1697 14.3172 0.00810586
1.10742 -0.193906 -0.160726 0.249924 19.0076 14.2479 0.00793622
1.11727 -0.221797 -0.163104 0.242854 19.0902 14.1872 0.00810448
1.12547 -0.240937 -0.161916 0.244428 19.0322 14.2291 0.00788504
1.13344 -0.270078 -0.166945 0.235846 19.1832 14.1094 0.00816257
1.14258 -0.294766 -0.160869 0.233983 19.0052 14.2594 0.00796024
1.15008 -0.318047 -0.167697 0.234759 18.9781 14.2257 0.00787328
1.16531 -0.342422 -0.167041 0.241942 19.1404 14.1216 0.0079568
1.1693 -0.369609 -0.166548 0.232004 19.172 14.4268 0.00807284
1.17078 -0.386797 -0.166341 0.232462 19.2089 14.1632 0.00795293
1.1818 -0.410625 -0.164016 0.236221 19.2377 14.2453 0.00784959
1.19656 -0.425781 -0.166134 0.232698 19.1864 14.3024 0.00794425
1.19953 -0.4425 -0.16906 0.230582 19.2145 14.3008 0.00797803
1.21234 -0.453203 -0.168105 0.235741 18.8972 14.218 0.00775339
1.21633 -0.455 -0.171654 0.239417 19.1932 14.2912 0.00796938
1.20719 -0.393125 -0.168069 0.230063 19.0679 14.1945 0.00828609
1.20445 -0.350313 -0.173416 0.228236 19.1175 14.1148 0.00817684
1.19461 -0.310547 -0.167412 0.236506 19.1085 14.1496 0.00785483
1.18719 -0.276328 -0.172376 0.235507 19.1557 14.2224 0.00814291
1.17578 -0.247969 -0.169989 0.23029 19.2822 14.2152 0.00813915
1.17359 -0.225234 -0.170754 0.226337 19.193 14.2234 0.00794228
1.16094 -0.202031 -0.173468 0.232345 19.2235 14.2709 0.00797468
1.14398 -0.181563 -0.169394 0.230477 19.0395 14.1721 0.00813345
1.14641 -0.163125 -0.168216 0.234817 19.0276 14.1859 0.00820915
1.13547 -0.14375 -0.170342 0.2322 19.1002 14.1861 0.00795096
1.12813 -0.132266 -0.171595 0.237523 19.1728 14.0661 0.00805113
1.11945 -0.116016 -0.168841 0.226392 19.195 14.2052 0.00807888
1.11187 -0.105938 -0.172865 0.226554 19.0997 14.1951 0.00812098
1.10422 -0.0928125 -0.169286 0.232546 19.1682 14.2197 0.00817496
1.09484 -0.0857813 -0.170328 0.231586 19.162 14.3162 0.00813293
1.08977 -0.0771875 -0.17033 0.234435 19.1296 14.23 0.00815049
1.08094 -0.0680469 -0.169593 0.229864 19.06 14.3062 0.00831559
1.08078 -0.0621094 -0.169664 0.23436 19.1395 14.236 0.00802382
1.0632 -0.0569531 -0.170222 0.236957 19.1673 14.1405 0.00825811
1.0582 -0.0535156 -0.170225 0.234524 19.2053 14.2571 0.00805743
1.05688 -0.0496094 -0.167185 0.231649 19.2087 14.257 0.00808466
1.04117 -0.0453125 -0.171429 0.234457 19.3809 14.2639 0.00828971
1.02266 -0.0454688 -0.169719 0.234575 19.2169 14.2087 0.00815828
1.02945 -0.0433594 -0.166667 0.234181 19.1466 14.2617 0.00804599
1.01453 -0.0400781 -0.170347 0.23942 19.1648 14.2391 0.00809065
1.005 -0.0403906 -0.170162 0.238894 19.1703 14.3201 0.00805296
0.997656 -0.0372656 -0.167016 0.239815 19.0808 14.2804 0.00805101
0.992891 -0.035625 -0.171688 0.240092 19.1 14.2861 0.00820397
0.978906 -0.0358594 -0.170346 0.249866 19.0465 14.2025 0.00822398
0.971797 -0.0334375 -0.170389 0.246868 19.0731 14.3026 0.00793277
0.967813 -0.0353125 -0.169566 0.246401 18.9314 14.2062 0.00802668
0.959844 -0.0345312 -0.16966 0.247841 19.1068 14.1335 0.00815357
0.944688 -0.0323437 -0.170292 0.244436 19.0276 14.2886 0.00794557
0.938047 -0.0315625 -0.171398 0.24691 19.0004 14.2051 0.00788986
0.939219 -0.0342187 -0.168106 0.24943 19.0782 14.2333 0.0079384
0.925 -0.0310156 -0.169355 0.248651 19.0516 14.2948 0.00823108
0.909062 -0.03125 -0.167576 0.257709 18.9344 14.3771 0.0080614
0.908281 -0.0316406 -0.168435 0.251771 19.1041 14.3156 0.00815264
0.899922 -0.0305469 -0.169612 0.257547 19.0485 14.2519 0.00798068
0.894297 -0.0320312 -0.166569 0.257451 19.1495 14.3414 0.00796913
0.882969 -0.0288281 -0.169636 0.261277 19.0739 14.2697 0.00815018
0.879609 -0.0292969 -0.169888 0.262462 19.02 14.2145 0.00837359
0.861953 -0.0278906 -0.170946 0.270279 18.9884 14.2622 0.00822743
0.857578 -0.026875 -0.167899 0.274521 18.9763 14.1652 0.00835669
0.856406 -0.0280469 -0.166438 0.268447 19.085 14.3139 0.00848364
0.837344 -0.0295313 -0.168681 0.268184 18.9839 14.2486 0.00835852
0.83625 -0.0280469 -0.164437 0.26892 19.103 14.3836 0.0082593
0.822344 -0.0294531 -0.167161 0.280568 18.9994 14.2708 0.00856443
0.82 -0.0289844 -0.163233 0.275649 19.0994 14.3617 0.00841965
0.804297 -0.0270312 -0.162822 0.291057 19.1001 14.3873 0.00873826
0.806172 -0.0278125 -0.165448 0.293932 19.0731 14.3975 0.00859233
0.798359 -0.0296094 -0.166392 0.28683 19.0378 14.2444 0.00845519
0.786172 -0.0283594 -0.163709 0.292898 18.9874 14.3148 0.0082316
0.775703 -0.0275781 -0.162648 0.290048 19.0634 14.37 0.00844146
0.764062 -0.0285938 -0.16496 0.294506 19.1496 14.4093 0.00842106
0.759219 -0.0291406 -0.16164 0.300521 19.097 14.4004 0.00826835
0.751484 -0.0278125 -0.162874 0.293494 19.1119 14.3682 0.00845682
0.755625 -0.0292969 -0.162292 0.302982 19.1147 14.3928 0.00842871
0.727266 -0.0290625 -0.16167 0.307878 19.1475 14.3673 0.00862825
0.726094 -0.0266406 -0.160888 0.312178 19.1343 14.3827 0.00831432
0.712969 -0.0254688 -0.161932 0.308129 19.0404 14.4501 0.00828711
0.710859 -0.0272656 -0.158335 0.313483 19.1454 14.3476 0.00870259
0.69875 -0.0284375 -0.1586 0.316187 19.113 14.4137 0.00828573
0.689844 -0.0277344 -0.159226 0.313855 19.123 14.3725 0.00864588
0.682734 -0.0248438 -0.1589 0.319694 19.2512 14.4951 0.0085525
0.681797 -0.0269531 -0.158478 0.327224 19.0809 14.4521 0.00849419
0.666484 -0.0264844 -0.155869 0.326287 19.1236 14.2974 0.00860424
0.657891 -0.0266406 -0.155355 0.329687 19.2621 14.4785 0.00883772
0.657031 -0.0257031 -0.154167 0.331112 19.1694 14.4612 0.00851513
0.643984 -0.0246094 -0.155543 0.331481 19.1667 14.445 0.00856274
0.637969 -0.026875 -0.153408 0.335074 19.1782 14.4384 0.0085479
0.629375 -0.0272656 -0.151727 0.333363 19.3103 14.4908 0.0085061
0.620078 -0.0260156 -0.15015 0.349011 19.2501 14.5071 0.00851282
0.612422 -0.0260156 -0.14663 0.350986 19.2731 14.4935 0.00867942
0.601562 -0.0251563 -0.150926 0.351173 19.2416 14.5278 0.00873712
0.591641 -0.0233594 -0.150992 0.360733 19.3453 14.537 0.00876463
0.58 -0.0258594 -0.147342 0.360526 19.1903 14.5522 0.00859188
0.574141 -0.0257813 -0.144982 0.356796 19.3093 14.5511 0.00878766
0.564063 -0.0264844 -0.145998 0.364883 19.1858 14.64 0.00872923
0.561797 -0.0245313 -0.143877 0.369015 19.3398 14.48 0.00856713
0.547266 -0.0253125 -0.140338 0.371131 19.2139 14.5983 0.00870632
0.541016 -0.0249219 -0.142404 0.370944 19.14 14.5412 0.00875944
0.527969 -0.0242188 -0.139069 0.379953 19.2344 14.6096 0.00878387
0.523672 -0.0254688 -0.139223 0.384645 19.1435 14.5945 0.00881243
0.512031 -0.0235938 -0.140352 0.390847 19.4077 14.7049 0.00902117
0.514297 -0.0257813 -0.137893 0.383946 19.2269 14.5938 0.00866977
0.504609 -0.024375 -0.136042 0.398592 19.3085 14.7006 0.00903508
0.489219 -0.0221094 -0.135424 0.402191 19.2298 14.6762 0.00889332
0.483906 -0.0229687 -0.133044 0.403755 19.1753 14.5799 0.00883433
0.486016 -0.0244531 -0.131118 0.405673 19.2143 14.5621 0.00904899
0.467188 -0.0235938 -0.130165 0.414209 19.1267 14.6831 0.00874449
0.451719 -0.0239844 -0.128946 0.412744 19.2005 14.7003 0.00885301
0.456875 -0.0234375 -0.207274 0.345574 18.7141 14.5217 0.00558674
0.444688 -0.0246094 -0.214617 0.350073 18.5752 14.6568 0.00463695
0.434453 -0.0244531 -0.208739 0.346188 18.6496 14.4682 0.00500706
0.426641 -0.023125 -0.179646 0.356887 18.714 14.3986 0.00433661
0.425156 -0.0221875 -0.124239 0.426992 19.4873 14.8097 0.00306744
0.408438 -0.0214844 -0.0942187 0.493726 18.5298 14.3999 0.000890828
0.399375 -0.02375 -0.0202044 0.522282 16.1531 14.4762 0.000545417
0.397969 -0.0232812 0.0929409 0.275346 28.436 15.9827 0.00023839
0.385703 -0.0245313 0.0468698 0.731804 17.2857 18.1353 0.000326484
0.397891 -0.0263281 -0.0148623 0.506782 14.3998 13.976 0.000502441
0.407188 -0.0252344 -0.0178328 0.446776 18.1929 13.8416 0.000334166
0.41625 -0.0257813 -0.0785719 0.520401 18.0873 13.2652 0.000812283
0.425547 -0.0267969 -0.0882573 0.453838 18.7999 14.5106 0.00173952
0.434453 -0.0270312 -0.109149 0.446845 19.0503 14.7774 0.00258543
0.440859 -0.0276563 -0.110317 0.461967 19.0361 14.7431 0.00396617
0.448125 -0.0271875 -0.108466 0.447159 19.0985 14.7644 0.00510589
0.466406 -0.0277344 -0.112135 0.444519 19.1741 14.7511 0.0060945
0.459062 -0.0258594 -0.107921 0.451053 19.3183 14.8228 0.00694771
0.475156 -0.0272656 -0.10797 0.440265 19.1073 14.7478 0.00758751
0.475781 -0.0278906 -0.111498 0.437653 19.286 14.7831 0.0079943
0.48625 -0.0290625 -0.113494 0.435227 19.2837 14.7661 0.00824616
0.485781 -0.0292188 -0.110948 0.438663 19.3945 14.8718 0.00856217
0.502578 -0.0275781 -0.113765 0.434754 19.327 14.6906 0.00820873
0.51125 -0.0289063 -0.113281 0.429894 19.2237 14.6896 0.00845095
0.523672 -0.0283594 -0.114824 0.432084 19.354 14.7571 0.00850211
0.537344 -0.0277344 -0.114814 0.428768 19.2879 14.6746 0.00837099
0.545078 -0.0285938 -0.117604 0.428033 19.1746 14.6644 0.00836748
0.549297 -0.0286719 -0.113989 0.414761 19.2201 14.8027 0.00855761
0.559609 -0.0310156 -0.116048 0.417926 19.205 14.7482 0.00853
0.560078 -0.0301562 -0.118118 0.418009 19.2063 14.7998 0.0086417
0.570937 -0.0292188 -0.115618 0.410752 19.3322 14.6436 0.00866029
0.586172 -0.0291406 -0.11109 0.402548 19.2368 14.6749 0.00853513
0.592344 -0.0305469 -0.117758 0.39982 19.2923 14.6788 0.00857414
0.601406 -0.0298438 -0.115369 0.397952 19.3298 14.5645 0.00871389
0.613281 -0.0299219 -0.113717 0.3972 19.4394 14.701 0.00877742
0.614453 -0.0305469 -0.116184 0.395483 19.2615 14.641 0.00857148
0.625703 -0.0292969 -0.116557 0.392037 19.2547 14.6673 0.00852324
0.625938 -0.0307812 -0.118197 0.382647 19.2768 14.6203 0.00866535
0.636172 -0.0321094 -0.118416 0.389612 19.3224 14.6459 0.00841977
0.653516 -0.0299219 -0.119534 0.390636 19.3093 14.5779 0.00827719
0.659375 -0.0317188 -0.119643 0.377887 19.3371 14.5832 0.00840847
0.666719 -0.0319531 -0.119164 0.365944 19.3588 14.5979 0.00846694
0.680625 -0.0307031 -0.119956 0.374137 19.2165 14.5787 0.00834629
0.682813 -0.0296875 -0.119089 0.366205 19.2891 14.5642 0.00829591
0.686406 -0.0301562 -0.120411 0.361133 19.246 14.6843 0.00827447
0.693359 -0.031875 -0.12117 0.365415 19.2997 14.6401 0.00823666
0.705 -0.0315625 -0.122556 0.361781 19.3419 14.6126 0.00814627
0.718594 -0.0324219 -0.120252 0.359764 19.2064 14.5848 0.00821647
0.727031 -0.0326562 -0.119902 0.358259 19.1243 14.5081 0.0082574
0.734922 -0.0330469 -0.126261 0.359375 19.2213 14.5607 0.00810552
0.746328 -0.0317188 -0.119932 0.344139 19.2067 14.491 0.00812737
0.75125 -0.0320312 -0.122304 0.349126 19.3094 14.5045 0.00814543
0.760391 -0.0327344 -0.122411 0.337995 19.249 14.5477 0.00823279
0.767188 -0.0317188 -0.122744 0.34514 19.2786 14.6097 0.00825211
0.766484 -0.0329687 -0.125113 0.336013 19.2116 14.4275 0.00813639
0.7725 -0.0344531 -0.123784 0.328467 19.1692 14.477 0.00791926
0.789219 -0.0333594 -0.126037 0.335967 19.2541 14.4837 0.00796292
0.794922 -0.0335937 -0.124601 0.324933 19.1956 14.3947 0.00762121
0.805547 -0.0361719 -0.123444 0.325474 19.2186 14.3556 0.00730255
0.817734 -0.0346094 -0.127031 0.321111 19.2472 14.49 0.00710651
0.817266 -0.0355469 -0.124383 0.318301 19.2422 14.4475 0.00656552
0.829688 -0.0375 -0.124805 0.313475 19.1566 14.4046 0.00641637
0.842969 -0.0353906 -0.128341 0.31063 19.1503 14.3777 0.00583644
0.85375 -0.0365625 -0.130954 0.304967 19.223 14.3075 0.00556212
0.871719 -0.0360156 -0.13102 0.304756 19.1036 14.4013 0.00548009
0.862656 -0.0366406 -0.130154 0.293973 19.0458 14.2854 0.00530745
0.869922 -0.0360156 -0.128742 0.300555 19.0813 14.2128 0.00514975
0.876719 -0.0390625 -0.132059 0.301475 18.9044 14.2671 0.00513271
0.889531 -0.0379688 -0.130513 0.284863 19.1396 14.5539 0.00522476
0.899062 -0.0374219 -0.130882 0.293355 19.0748 14.1318 0.00539187
0.907266 -0.0373438 -0.133639 0.28467 18.9362 14.2062 0.00556447
0.910469 -0.0379688 -0.131907 0.272828 19.0164 14.3014 0.00559869
0.921953 -0.0386719 -0.135845 0.278199 19.1305 14.2138 0.00620741
0.928984 -0.0396094 -0.134416 0.276216 18.9517 14.3122 0.00649712
0.93875 -0.0385938 -0.133104 0.270057 19.2381 14.3118 0.00678896
0.949453 -0.0383594 -0.139846 0.262468 18.9751 14.2554 0.00745406
0.951328 -0.0416406 -0.140741 0.2637 19.0275 14.3175 0.00782366
0.971953 -0.0396094 -0.142174 0.264112 19.0604 14.2342 0.00812353
0.969922 -0.041875 -0.146547 0.267169 19.0172 14.2365 0.00840794
0.984844 -0.0455469 -0.149606 0.263853 19.029 14.3634 0.00863312
0.987734 -0.0434375 -0.156383 0.269523 19.0903 14.2312 0.00885869
0.993828 -0.0471875 -0.157524 0.259452 19.097 14.322 0.00887111
1.00484 -0.049375 -0.160761 0.264804 18.9798 14.3195 0.00911001
1.00562 -0.0540625 -0.163518 0.255066 19.0127 14.21 0.00896245
1.02547 -0.0591406 -0.165903 0.265783 18.9959 14.3053 0.00909136
1.02727 -0.0619531 -0.164888 0.256271 19.0383 14.2817 0.00913988
1.03523 -0.0710156 -0.166951 0.260904 18.9915 14.2517 0.00908566
1.04602 -0.0796875 -0.166974 0.2557 19.0076 14.2204 0.0090147
1.06305 -0.0874219 -0.168177 0.247257 19.0478 14.2818 0.00906297
1.06172 -0.103594 -0.169629 0.246159 18.9607 14.3125 0.0090367
1.07617 -0.114844 -0.170711 0.244506 18.9118 14.2595 0.00893032
1.07234 -0.131953 -0.171538 0.249907 18.9604 14.1571 0.00873593
1.09008 -0.148672 -0.171073 0.243307 19.0064 14.2385 0.00872516
1.10875 -0.171094 -0.171083 0.250843 18.9354 14.247 0.00873971
1.11008 -0.190469 -0.171494 0.248683 18.9601 14.1713 0.00867246
1.11422 -0.212031 -0.172348 0.238837 19.1676 14.1961 0.00857592
1.12898 -0.233203 -0.165308 0.233899 19.1664 14.2078 0.00867956
1.13195 -0.26125 -0.167609 0.23684 19.1644 14.273 0.0083225
1.14508 -0.288594 -0.16732 0.231844 19.0844 14.2651 0.0084681
1.15187 -0.307891 -0.167304 0.234073 19.1194 14.0932 0.00829106
1.15977 -0.335703 -0.170387 0.229158 18.9953 14.2106 0.00826232
1.16266 -0.360156 -0.169053 0.231841 19.08 14.2494 0.00830386
1.17711 -0.382578 -0.165588 0.23242 19.0332 14.3001 0.0081264
1.19023 -0.401484 -0.169945 0.242565 19.0736 14.1796 0.00826473
1.19078 -0.420547 -0.168295 0.232783 19.1237 14.2094 0.00826329
1.20008 -0.429453 -0.167362 0.235254 19.1436 14.2559 0.00809916
1.20477 -0.442031 -0.168572 0.232915 19.304 14.2341 0.00823649
1.21539 -0.449609 -0.164269 0.226099 19.1416 14.1213 0.00809162
1.22039 -0.407031 -0.169035 0.234689 19.0515 14.2605 0.00793496
1.21156 -0.351953 -0.168244 0.227489 19.1511 14.1416 0.00800675
1.19961 -0.314844 -0.169772 0.225452 19.0627 14.1818 0.00818866
1.19758 -0.281172 -0.17125 0.229245 19.0336 14.1631 0.00798929
1.18023 -0.2525 -0.170437 0.230092 19.1357 14.2377 0.00800709
1.17 -0.227656 -0.171521 0.237649 19.1759 14.1594 0.00813557
1.15984 -0.20625 -0.170859 0.228778 19.1248 14.2274 0.00818814
1.15797 -0.186562 -0.169556 0.233295 19.2007 14.183 0.00813855
1.14602 -0.165859 -0.174697 0.234421 19.0624 14.2247 0.00809924
1.14148 -0.148125 -0.173221 0.229115 19.1428 14.2435 0.00821485
1.13828 -0.132812 -0.171521 0.227394 19.1561 14.264 0.00809759
1.12781 -0.117266 -0.171821 0.225533 19.0438 14.1872 0.00811202
1.11742 -0.106797 -0.174401 0.238169 19.1238 14.1939 0.00818966
1.10203 -0.0972656 -0.175912 0.223767 19.0738 14.2019 0.00827174
1.09711 -0.0852344 -0.172651 0.226704 19.2078 14.2776 0.00829233
1.08523 -0.0771094 -0.174559 0.236116 19.0803 14.3288 0.00820593
1.08602 -0.0692969 -0.169925 0.23237 19.0666 14.2646 0.00816421
1.07664 -0.0635156 -0.172688 0.229783 19.0273 14.2294 0.00833833
1.06078 -0.0571094 -0.173612 0.228223 19.0993 14.1309 0.00829958
1.06516 -0.0524219 -0.170425 0.238359 19.1851 14.2778 0.00832629
1.04133 -0.0485937 -0.172934 0.231473 18.9963 14.2093 0.00841799
1.04398 -0.0466406 -0.171811 0.241538 19.119 14.1143 0.00831778
1.03 -0.0428125 -0.170477 0.239932 19.0582 14.1975 0.00827869
1.02461 -0.0416406 -0.175019 0.236386 19.0772 14.2695 0.00844528
1.01758 -0.0398438 -0.172569 0.240229 19.0843 14.1749 0.00833463
1.0043 -0.0382031 -0.173129 0.242986 19.1157 14.1916 0.0083099
1.0018 -0.03875 -0.173132 0.235682 19.1611 14.2847 0.00846461
0.991875 -0.0355469 -0.170316 0.239797 19.2225 14.2721 0.00843124
0.980781 -0.0355469 -0.170215 0.242123 19.0805 14.1945 0.0085602
0.9675 -0.0348437 -0.169756 0.244028 18.9565 14.1297 0.00838935
0.961719 -0.034375 -0.172182 0.245765 19.0859 14.2003 0.0081156
0.95625 -0.0315625 -0.174799 0.23901 18.9329 14.2387 0.00813949
0.950937 -0.0342187 -0.172695 0.241488 19.0932 14.2376 0.00847811
0.935781 -0.0310156 -0.169422 0.246507 18.8597 14.2514 0.00833134
0.932188 -0.0319531 -0.175075 0.244994 19.0202 14.1551 0.00828621
0.922656 -0.0325781 -0.174639 0.251979 19.0464 14.2518 0.00841192
0.910781 -0.0297656 -0.17435 0.253995 18.9198 14.2 0.00858956
0.905859 -0.0308594 -0.171472 0.254102 19.0595 14.299 0.00868977
0.900547 -0.03125 -0.170758 0.253061 19.0238 14.2743 0.00838697
0.883672 -0.0282813 -0.170675 0.261503 19.078 14.2453 0.00851877
0.879062 -0.0298438 -0.172599 0.253672 19.1404 14.3276 0.00867428
0.878125 -0.0302344 -0.168189 0.264367 18.9979 14.2654 0.008525
0.855781 -0.0285938 -0.172544 0.263272 19.0351 14.3428 0.00847486
0.855547 -0.0301562 -0.169897 0.27637 18.889 14.2239 0.00854702
0.846094 -0.0264844 -0.169458 0.264801 19.0163 14.3172 0.00852374
0.838594 -0.028125 -0.171134 0.268472 18.9733 14.2378 0.00862028
0.831953 -0.0271094 -0.168871 0.273718 19.146 14.2439 0.00849221
0.816875 -0.0288281 -0.168693 0.276474 19.0105 14.3168 0.00851576
0.806016 -0.0300781 -0.170218 0.287426 19.1212 14.3001 0.00873168
0.795078 -0.0276563 -0.170764 0.282939 19.0437 14.3053 0.00877838
0.790078 -0.0283594 -0.168916 0.285561 19.0474 14.3846 0.00870516
0.788438 -0.0297656 -0.167209 0.288414 19.1295 14.2082 0.00878938
0.780391 -0.026875 -0.165837 0.289455 19.1092 14.3282 0.00871639
0.770078 -0.0272656 -0.164459 0.293865 19.0133 14.3249 0.00858861
0.767266 -0.0274219 -0.165261 0.291969 19.0055 14.2755 0.00877195
0.755 -0.0284375 -0.161263 0.287431 19.1711 14.2689 0.0084684
0.737578 -0.0289063 -0.166172 0.297939 19.1639 14.348 0.00869853
0.743281 -0.0283594 -0.160709 0.303964 19.1304 14.3243 0.00871318
0.730313 -0.0265625 -0.166516 0.306906 19.0205 14.3015 0.00860574
0.721953 -0.0274219 -0.162839 0.298012 19.132 14.4022 0.00879899
0.712344 -0.0288281 -0.162994 0.317247 19.0359 14.3782 0.00870464
0.701016 -0.026875 -0.161304 0.312249 19.155 14.3211 0.00871073
0.699453 -0.0278906 -0.160617 0.310299 19.1448 14.3717 0.00873069
0.68 -0.0249219 -0.158814 0.31461 19.2245 14.3577 0.00869536
0.676563 -0.0266406 -0.159517 0.323723 19.1371 14.4858 0.00869231
0.674531 -0.024375 -0.15701 0.32185 19.1271 14.4857 0.00862028
0.662813 -0.0258594 -0.159782 0.328907 19.0256 14.3285 0.00860284
0.654141 -0.0257031 -0.158669 0.328078 19.1103 14.2798 0.00888019
0.647188 -0.0275 -0.155376 0.329834 19.1291 14.293 0.00870963
0.640234 -0.024375 -0.158984 0.326121 19.1977 14.4783 0.00897785
0.63625 -0.0250781 -0.152221 0.337039 19.1224 14.4932 0.0088496
0.625313 -0.0259375 -0.153582 0.340869 19.1836 14.4718 0.00895022
0.611719 -0.0260937 -0.153225 0.344605 19.161 14.3782 0.00882779
0.603359 -0.0245313 -0.152413 0.347323 19.1976 14.4552 0.00892644
0.5975 -0.0251563 -0.14987 0.355594 19.1354 14.5076 0.00913002
0.585078 -0.0255469 -0.155231 0.353036 19.268 14.5348 0.00914728
0.576484 -0.0239063 -0.153094 0.362835 19.2383 14.5674 0.00916761
0.569375 -0.0250781 -0.15076 0.363588 19.2018 14.5193 0.00935765
0.560312 -0.0248438 -0.150442 0.366065 19.2277 14.5304 0.00915802
0.552031 -0.0255469 -0.147533 0.369128 19.3078 14.6527 0.00942853
0.546172 -0.0257031 -0.145982 0.373971 19.2977 14.5256 0.00928053
0.543125 -0.025 -0.149654 0.377174 19.3122 14.6017 0.00929597
0.533438 -0.0235938 -0.144406 0.386766 19.1584 14.538 0.00919663
0.517422 -0.0241406 -0.140765 0.387855 19.3537 14.6109 0.00943371
0.509844 -0.0240625 -0.141976 0.387839 19.3441 14.559 0.00930442
0.494375 -0.02375 -0.138334 0.390415 19.1872 14.5814 0.00921994
0.49375 -0.0226562 -0.136326 0.390771 19.2835 14.623 0.00894082
0.490703 -0.0228906 -0.135279 0.396749 19.3642 14.6946 0.00927744
0.47875 -0.0232031 -0.135874 0.403503 19.2654 14.6767 0.00916095
0.479375 -0.0238281 -0.130552 0.410731 19.2101 14.5812 0.00933358