File: scripts/CV_XRD/data/ascii/I20180835_236_CV_XRD.dat
# I20180835 #236 CV with XRD
# Potential / V, Current Density / mA/cm^2, Strain ip / %, Strain oop / %, d ip / nm, d oop / nm, Intensity (area ip)
0.358828 -0.0295313 -0.132438 0.394797 19.5234 14.6585 0.0105961
0.367812 -0.0296875 -0.135036 0.396632 19.4046 14.7015 0.010728
0.365938 -0.0308594 -0.135614 0.389269 19.5553 14.6964 0.0108845
0.375078 -0.0332812 -0.138939 0.395629 19.4358 14.6615 0.0108445
0.376953 -0.0294531 -0.13597 0.393425 19.4324 14.7076 0.0107846
0.394766 -0.0321094 -0.139479 0.386116 19.4276 14.6553 0.0107101
0.399609 -0.0326562 -0.140084 0.390841 19.4655 14.7335 0.0107394
0.406406 -0.0329687 -0.13689 0.39067 19.3524 14.5342 0.0108152
0.42 -0.0335937 -0.137733 0.383947 19.5794 14.6672 0.0106446
0.425391 -0.0349219 -0.139469 0.385432 19.3487 14.6955 0.0108862
0.434219 -0.0344531 -0.137919 0.381069 19.4283 14.6878 0.0106959
0.438984 -0.0336719 -0.137026 0.380155 19.4397 14.6638 0.0109142
0.444141 -0.0369531 -0.140185 0.380434 19.4532 14.6541 0.0108378
0.455703 -0.039375 -0.142301 0.378281 19.3853 14.6219 0.0107842
0.459922 -0.0382813 -0.139365 0.374918 19.2613 14.5896 0.0106305
0.469609 -0.038125 -0.142813 0.374965 19.3717 14.6615 0.0105795
0.473516 -0.0389844 -0.142296 0.36865 19.3714 14.6475 0.0104644
0.493203 -0.0398438 -0.142396 0.361723 19.3737 14.4672 0.0104739
0.50375 -0.0375 -0.14246 0.359317 19.3016 14.5352 0.0104085
0.514609 -0.0417187 -0.141951 0.359302 19.2416 14.662 0.0103316
0.516875 -0.0382813 -0.150318 0.359789 19.3826 14.5977 0.0105731
0.519297 -0.0413281 -0.148906 0.356908 19.3644 14.5459 0.0103823
0.524141 -0.0379688 -0.149711 0.34827 19.3507 14.5868 0.0103335
0.544844 -0.0396875 -0.151214 0.351809 19.3189 14.5525 0.0103801
0.551406 -0.0407812 -0.15406 0.346432 19.25 14.5106 0.0102717
0.551406 -0.0413281 -0.153846 0.343114 19.2325 14.535 0.0103042
0.565234 -0.0374219 -0.154915 0.342086 19.2741 14.5083 0.0101974
0.575469 -0.0432813 -0.153666 0.338716 19.1783 14.4717 0.0100717
0.578047 -0.0454688 -0.155157 0.339644 19.2603 14.4812 0.00991773
0.585234 -0.0504687 -0.15747 0.340556 19.3251 14.4126 0.010319
0.594063 -0.0538281 -0.160776 0.337943 19.2349 14.5076 0.0102291
0.607266 -0.0663281 -0.160867 0.339618 19.2141 14.4088 0.0100387
0.611172 -0.0801562 -0.162493 0.332186 19.2482 14.4246 0.0100996
0.626094 -0.100469 -0.164239 0.333702 19.2349 14.4934 0.0101803
0.626641 -0.13125 -0.163983 0.330604 19.2694 14.3789 0.00989668
0.645 -0.167109 -0.16551 0.33519 19.1002 14.3746 0.0101645
0.649844 -0.214141 -0.164898 0.331434 19.1416 14.4273 0.00983866
0.660859 -0.266797 -0.167124 0.33092 19.2311 14.5356 0.00991897
0.658672 -0.328359 -0.168538 0.328404 19.1052 14.3669 0.00995772
0.662031 -0.296641 -0.16753 0.328291 19.0924 14.4248 0.00983633
0.651094 -0.238047 -0.172899 0.328183 19.0785 14.3741 0.00985558
0.637969 -0.192422 -0.168693 0.331223 19.0711 14.4077 0.00988053
0.634297 -0.150703 -0.170048 0.329825 19.1078 14.4414 0.0101683
0.631016 -0.117656 -0.171497 0.330087 19.2599 14.4137 0.00986511
0.618906 -0.0921875 -0.171384 0.329909 19.1214 14.4379 0.01009
0.606953 -0.0752344 -0.171164 0.333581 19.245 14.3698 0.010104
0.60125 -0.0591406 -0.169206 0.329347 19.1167 14.5182 0.0101528
0.585391 -0.0533594 -0.172908 0.328319 19.1143 14.4748 0.00984784
0.585234 -0.0478125 -0.169437 0.329075 19.1604 14.458 0.0100133
0.586875 -0.0407812 -0.169044 0.328874 19.1548 14.3993 0.00989507
0.573672 -0.0377344 -0.170509 0.326987 19.1491 14.4786 0.00995362
0.559297 -0.0366406 -0.171435 0.337184 19.1644 14.3499 0.0101919
0.546563 -0.0339844 -0.171773 0.330878 19.2515 14.4113 0.00994774
0.546875 -0.0332812 -0.169163 0.331328 19.2037 14.4152 0.0101372
0.535547 -0.0329687 -0.17182 0.343039 19.1792 14.355 0.00998533
0.524531 -0.0335937 -0.171931 0.343355 19.1707 14.3996 0.0101139
0.506875 -0.0300781 -0.169518 0.333391 19.2302 14.416 0.0101892
0.515078 -0.0308594 -0.169695 0.338229 19.1233 14.4276 0.0101252
0.501563 -0.0327344 -0.171319 0.342533 19.1991 14.5069 0.0099128
0.494922 -0.030625 -0.170412 0.332964 19.2669 14.5123 0.0100735
0.479219 -0.0322656 -0.168016 0.342813 19.2035 14.498 0.0101932
0.471406 -0.0314844 -0.16951 0.338722 19.2244 14.4316 0.0101694
0.471875 -0.03 -0.167616 0.350452 19.3254 14.4875 0.010246
0.45875 -0.0270312 -0.165138 0.347484 19.2971 14.5547 0.0100419
0.448047 -0.0303906 -0.164724 0.344883 19.2689 14.5694 0.0101587
0.448828 -0.0298438 -0.161939 0.345465 19.241 14.6242 0.0100769
0.436328 -0.028125 -0.163636 0.347674 19.2631 14.526 0.010218
0.429141 -0.0275 -0.164071 0.34889 19.3593 14.4188 0.0103151
0.420703 -0.0296094 -0.163483 0.348555 19.3187 14.5193 0.0104769
0.417734 -0.0285938 -0.167058 0.362107 19.2379 14.5251 0.0105525
0.404844 -0.0314063 -0.164396 0.363858 19.3426 14.4733 0.0104771
0.392188 -0.0296094 -0.162432 0.361832 19.3554 14.5921 0.0107131
0.384844 -0.0296094 -0.163691 0.358705 19.3952 14.586 0.0105953
0.381641 -0.0296094 -0.164021 0.363377 19.3338 14.5679 0.0103746
0.368594 -0.0307031 -0.158994 0.364132 19.3736 14.624 0.0102933
0.355156 -0.0303906 -0.157743 0.361808 19.3456 14.5575 0.0105717
0.346172 -0.0302344 -0.158439 0.372648 19.4402 14.7018 0.0104724
0.351875 -0.0280469 -0.157768 0.372775 19.4325 14.5639 0.0103695
0.342578 -0.0285938 -0.158934 0.373525 19.2771 14.5846 0.0105784
0.326484 -0.0282813 -0.158642 0.376305 19.4245 14.6428 0.0106519
0.312969 -0.0283594 -0.158197 0.384561 19.3561 14.6128 0.0105753
0.311719 -0.0279688 -0.155026 0.383106 19.3901 14.5703 0.0104535
0.304922 -0.0277344 -0.15475 0.380869 19.3942 14.5749 0.0106217
0.298281 -0.0279688 -0.157954 0.384856 19.4868 14.6693 0.010524
0.293125 -0.0275 -0.1552 0.383786 19.3443 14.6865 0.0106081
0.280781 -0.0275781 -0.150981 0.389466 19.4176 14.6558 0.0104992
0.270781 -0.0275781 -0.153916 0.392216 19.3179 14.6583 0.0106032
0.266172 -0.0272656 -0.152975 0.393159 19.3659 14.6377 0.0106274
0.252188 -0.0275781 -0.15353 0.390731 19.374 14.6578 0.0106378
0.241641 -0.0263281 -0.155158 0.395341 19.4163 14.7448 0.0105175
0.234453 -0.0274219 -0.151778 0.400865 19.4594 14.694 0.0106387
0.230938 -0.0260937 -0.154391 0.402199 19.3866 14.6445 0.0106486
0.222109 -0.025 -0.153612 0.40009 19.3685 14.7731 0.0106799
0.209141 -0.025625 -0.152146 0.406083 19.332 14.7049 0.0108068
0.199922 -0.0242969 -0.150437 0.402999 19.3631 14.7039 0.0108504
0.194297 -0.0240625 -0.15179 0.410018 19.3728 14.7389 0.0105884
0.187656 -0.0241406 -0.151722 0.415336 19.3586 14.6691 0.0107653
0.171953 -0.0241406 -0.150711 0.421394 19.3413 14.8377 0.0108843
0.171953 -0.0257031 -0.150697 0.422613 19.491 14.7573 0.0107128
0.156172 -0.0261719 -0.148578 0.425808 19.4523 14.7566 0.0104836
0.149453 -0.0221094 -0.14859 0.416282 19.5194 14.8316 0.0107159
0.132266 -0.0242188 -0.147461 0.428971 19.4528 14.8632 0.0106026
0.132422 -0.024375 -0.146158 0.43111 19.3484 14.7805 0.0107408
0.133672 -0.0253125 -0.145592 0.426584 19.4113 14.756 0.010689
0.119609 -0.0242969 -0.143747 0.428332 19.3906 14.7659 0.0105841
0.119375 -0.0244531 -0.143833 0.432838 19.3692 14.8223 0.0106972
0.105469 -0.0227344 -0.143808 0.441445 19.4933 14.8742 0.0107051
0.0973438 -0.0250781 -0.143258 0.445287 19.3745 14.8061 0.0108113
0.0879687 -0.023125 -0.14137 0.448483 19.3489 14.8176 0.0106421
0.0828906 -0.0232812 -0.138744 0.446582 19.3842 14.7471 0.0109558
0.0764844 -0.0228906 -0.143329 0.448229 19.401 14.8111 0.0106413
0.0540625 -0.0244531 -0.138411 0.452958 19.4309 14.9092 0.0108248
0.0625 -0.0230469 -0.139072 0.462425 19.4474 14.7804 0.0109937
0.0459375 -0.0228906 -0.138046 0.461475 19.4133 14.9102 0.010947
0.0295313 -0.024375 -0.137052 0.459249 19.4967 14.8532 0.0110763
0.0282813 -0.0232031 -0.136488 0.464651 19.4359 14.903 0.0110018
0.0145313 -0.0221875 -0.137131 0.465584 19.458 14.8814 0.0107296
0.0078125 -0.0214844 -0.136964 0.474293 19.4994 14.8678 0.0110357
0.00453125 -0.0222656 -0.138767 0.483905 19.4098 14.9997 0.0109546
-0.00546875 -0.0224219 -0.135659 0.479658 19.4407 14.8543 0.0108117
-0.0141406 -0.0217188 -0.132493 0.48713 19.4242 14.9686 0.0108679
-0.0264062 -0.0225781 -0.136313 0.479876 19.464 14.9019 0.0108383
-0.0341406 -0.0227344 -0.130418 0.496055 19.4644 14.9503 0.0107461
-0.0194531 -0.025 -0.131307 0.491579 19.3875 14.9532 0.01074
-0.011875 -0.025 -0.130925 0.488047 19.3685 15.0129 0.0105543
-0.000390625 -0.0244531 -0.131935 0.489541 19.4113 14.9042 0.0107063
0.0142969 -0.0258594 -0.129223 0.491476 19.4308 14.8846 0.0104533
0.0204688 -0.0264062 -0.130452 0.492987 19.4032 14.9532 0.0107404
0.0205469 -0.0251563 -0.130675 0.489906 19.3899 15.0045 0.0105107
0.0360156 -0.0260156 -0.133006 0.48998 19.3079 14.8859 0.0107627
0.0357031 -0.0271094 -0.132251 0.48527 19.4173 14.9323 0.0108985
0.035625 -0.0267969 -0.130262 0.488769 19.3675 14.9518 0.0107102
0.0678125 -0.0267187 -0.131706 0.487422 19.4012 14.9409 0.010838
0.0667188 -0.0269531 -0.130049 0.479938 19.3598 14.9477 0.0106887
0.0851563 -0.0279688 -0.128783 0.478113 19.3887 14.8983 0.0107542
0.0807812 -0.0275 -0.130851 0.471256 19.478 14.9049 0.0108383
0.0898438 -0.0261719 -0.127959 0.47247 19.4971 14.9095 0.0109114
0.103438 -0.0266406 -0.129786 0.470033 19.4398 14.8773 0.0108592
0.108516 -0.0283594 -0.124939 0.473502 19.4104 14.8673 0.0107144
0.115937 -0.0273438 -0.128467 0.472179 19.5107 14.9479 0.0107345
0.124766 -0.0298438 -0.126976 0.465579 19.5124 14.8302 0.0107345
0.136563 -0.0290625 -0.127839 0.468432 19.3689 14.9738 0.0108531
0.135703 -0.0295313 -0.129651 0.467932 19.482 14.8918 0.0108996
0.159219 -0.0296875 -0.128147 0.45104 19.5392 14.9239 0.0106893
0.167266 -0.0291406 -0.130317 0.463593 19.4231 14.853 0.0108273
0.170469 -0.02875 -0.12945 0.465013 19.4889 14.9085 0.0106494
0.165625 -0.0304687 -0.127843 0.457428 19.5506 14.916 0.0108409
0.189531 -0.0310937 -0.125795 0.458003 19.5088 14.8138 0.0107217
0.189531 -0.0299219 -0.126701 0.456418 19.4826 14.8535 0.0108749
0.1975 -0.0288281 -0.131672 0.450258 19.4481 14.8861 0.0106875
0.212578 -0.0307812 -0.129777 0.447274 19.4297 14.8036 0.0107783
0.21875 -0.0307031 -0.129816 0.44925 19.4759 14.892 0.0107059
0.217656 -0.0307031 -0.131685 0.444152 19.3939 14.8118 0.0108257
0.235313 -0.0317188 -0.12985 0.436301 19.3331 14.7482 0.0107459
0.241953 -0.0295313 -0.133899 0.446126 19.3744 14.8521 0.010665
0.253906 -0.0296875 -0.13295 0.435117 19.4164 14.8305 0.010702
0.256094 -0.0323437 -0.13237 0.431377 19.4031 14.756 0.0104916
0.26625 -0.0302344 -0.134055 0.434047 19.3143 14.7373 0.0106527
0.274531 -0.0314063 -0.133479 0.425319 19.3849 14.8021 0.0107255
0.289062 -0.0327344 -0.134794 0.428933 19.3921 14.7292 0.0107666
0.294531 -0.0328125 -0.134982 0.426571 19.44 14.7872 0.0107538
0.301563 -0.0344531 -0.132963 0.424537 19.5017 14.7835 0.010718
0.3175 -0.0313281 -0.135336 0.422209 19.4553 14.8042 0.0109297
0.316172 -0.034375 -0.131021 0.417496 19.4641 14.7562 0.010735
0.322734 -0.0341406 -0.135983 0.423673 19.4946 14.7802 0.0110234
0.332813 -0.0347656 -0.131927 0.416401 19.4321 14.7358 0.0106661
0.339844 -0.0348437 -0.132883 0.418363 19.4859 14.8277 0.0106104
0.348828 -0.034375 -0.134516 0.420762 19.5035 14.8274 0.0107426
0.368047 -0.0357813 -0.132546 0.410925 19.3648 14.7212 0.0109067
0.371953 -0.0344531 -0.133998 0.40932 19.4515 14.7723 0.0106788
0.368281 -0.0347656 -0.13443 0.40249 19.3812 14.7125 0.010843
0.383594 -0.0325781 -0.135831 0.405523 19.461 14.7019 0.0107255
0.394141 -0.0353906 -0.137078 0.395469 19.4465 14.6195 0.0105848
0.399375 -0.0350781 -0.136918 0.403364 19.3926 14.6569 0.0108333
0.404766 -0.0383594 -0.134563 0.397115 19.4775 14.7214 0.0109234
0.410703 -0.0376563 -0.139563 0.396069 19.4829 14.6689 0.0107011
0.426875 -0.0385156 -0.141598 0.396594 19.4212 14.725 0.0107049
0.436328 -0.0374219 -0.138358 0.393142 19.394 14.6894 0.0107152
0.439375 -0.0396875 -0.143299 0.385288 19.4533 14.6289 0.0107733
0.455313 -0.0395313 -0.140124 0.38248 19.4107 14.6584 0.0106337
0.456797 -0.0403906 -0.141052 0.387337 19.3946 14.6963 0.0107709
0.464609 -0.0407031 -0.142138 0.376741 19.3591 14.5998 0.0107212
0.472734 -0.0414062 -0.14579 0.371126 19.3614 14.5325 0.0105691
0.484453 -0.040625 -0.147649 0.367607 19.4274 14.5526 0.0106042
0.496641 -0.0402344 -0.147367 0.370343 19.2952 14.5356 0.0105071
0.495234 -0.0408594 -0.145756 0.357313 19.3607 14.4799 0.0105904
0.517031 -0.0395313 -0.150255 0.357308 19.4102 14.6242 0.0103886
0.514297 -0.0384375 -0.152504 0.354841 19.3231 14.6291 0.0105411
0.523984 -0.0384375 -0.152488 0.352352 19.3815 14.5778 0.0105831
0.539687 -0.0384375 -0.155533 0.359363 19.3407 14.5333 0.010244
0.546953 -0.0421094 -0.154271 0.348461 19.2768 14.5374 0.0102904
0.550078 -0.0407031 -0.156362 0.346074 19.3033 14.4736 0.0101597
0.557266 -0.0410156 -0.15529 0.34761 19.2225 14.4046 0.0102181
0.565469 -0.0421094 -0.15569 0.335082 19.1548 14.4159 0.0101873
0.576406 -0.0446094 -0.15771 0.33773 19.2499 14.4583 0.0102319
0.583047 -0.0475 -0.157097 0.337369 19.2813 14.5023 0.0100124
0.593359 -0.0516406 -0.159732 0.333237 19.1005 14.4704 0.00990167
0.600156 -0.0551563 -0.160879 0.331449 19.2181 14.5333 0.010218
0.612031 -0.0658594 -0.160603 0.334096 19.209 14.4764 0.010248
0.619141 -0.0815625 -0.161445 0.329659 19.2107 14.3965 0.00995007
0.628594 -0.106484 -0.160764 0.329313 19.2799 14.4207 0.00997727
0.639219 -0.138516 -0.164322 0.331851 19.1361 14.4618 0.00998067
0.646797 -0.175234 -0.164599 0.329799 19.094 14.4604 0.0100706
0.649141 -0.223828 -0.165046 0.331993 19.1311 14.5082 0.0101522
0.671484 -0.285781 -0.166041 0.330187 19.2357 14.4211 0.0100638
0.659766 -0.319922 -0.166409 0.329919 19.1629 14.3979 0.00997211
0.656797 -0.259922 -0.167933 0.325153 19.1809 14.4293 0.00995743
0.650703 -0.210313 -0.170308 0.324026 19.2515 14.4096 0.010173
0.637344 -0.168828 -0.170543 0.332884 19.1949 14.3941 0.0100646
0.625703 -0.131016 -0.1694 0.327953 19.0435 14.3728 0.0100182
0.619766 -0.102734 -0.172666 0.328803 19.135 14.4607 0.0100304
0.614219 -0.0807812 -0.170443 0.330405 19.341 14.4137 0.00982099
0.600859 -0.0664062 -0.171281 0.335532 19.1778 14.4351 0.0100059
0.602266 -0.0552344 -0.170536 0.333877 19.0524 14.4818 0.0100288
0.584063 -0.0442969 -0.17126 0.333458 19.1238 14.4574 0.00989796
0.574688 -0.0399219 -0.169009 0.333304 19.049 14.3544 0.010156
0.568203 -0.0407031 -0.169966 0.335285 19.048 14.4205 0.00988118
0.559297 -0.0359375 -0.168917 0.332386 19.1499 14.513 0.00996253
0.554766 -0.035625 -0.166769 0.334172 19.2068 14.5048 0.010095
0.546563 -0.0345312 -0.167377 0.331006 19.1506 14.4977 0.00980062
0.529687 -0.031875 -0.167569 0.341175 19.1827 14.4373 0.00986429
0.526016 -0.0308594 -0.168532 0.337472 19.2526 14.4176 0.0100241
0.521875 -0.03125 -0.167668 0.33216 19.1434 14.4134 0.00991029
0.509766 -0.03125 -0.166775 0.332529 19.2885 14.4881 0.0100361
0.498984 -0.0302344 -0.166073 0.335806 19.165 14.4446 0.0100074
0.493281 -0.0310937 -0.167741 0.339738 19.3045 14.4287 0.0100916
0.487187 -0.02875 -0.168358 0.337325 19.321 14.4829 0.0102796
0.480234 -0.0279688 -0.241698 0.265895 18.4102 14.1631 0.00537921
0.469453 -0.0275781 -0.245503 0.279511 18.3041 14.1833 0.00526634
0.460547 -0.0257031 -0.23016 0.282209 18.7288 14.1827 0.00538063
0.458828 -0.0264844 -0.182917 0.302212 18.8753 14.3573 0.00461167
0.444609 -0.0275781 -0.129435 0.359847 19.0092 13.9991 0.00221436
0.433125 -0.0257031 -0.117944 0.366141 18.6266 13.3844 0.000684585
0.430234 -0.0265625 -0.0507193 0.468874 13.3731 15.1087 0.00069704
0.423828 -0.0228125 0.0616332 0.404525 23.8891 14.7305 0.000285798
0.402109 -0.02625 -0.0329275 0.308704 17.9486 9.53518 0.000355106
0.406562 -0.0264844 -0.0272364 0.434201 17.0213 14.0888 0.000612408
0.401562 -0.0253906 -0.106569 0.426514 19.1507 14.0108 0.00102507
0.384375 -0.0283594 -0.117392 0.382642 19.3671 14.7098 0.0020412
0.367891 -0.0278125 -0.130222 0.383988 19.3882 14.4691 0.00344897
0.370625 -0.0271875 -0.130692 0.367052 19.273 14.4108 0.0051526
0.366563 -0.0295313 -0.125354 0.362549 19.1983 14.4907 0.00671401
0.359297 -0.0294531 -0.131331 0.370046 19.3516 14.6081 0.00861199
0.343359 -0.03 -0.134114 0.381048 19.3238 14.6598 0.00922384
0.333359 -0.0286719 -0.140231 0.383722 19.42 14.6488 0.00999601
0.333047 -0.0289844 -0.141062 0.384465 19.337 14.6862 0.0100009
0.322266 -0.0278906 -0.146395 0.384606 19.3507 14.5793 0.0102399
0.313047 -0.0285156 -0.145613 0.386927 19.3518 14.6693 0.0105017
0.303125 -0.0285938 -0.149182 0.379847 19.4096 14.5917 0.0104333
0.299609 -0.02875 -0.148949 0.390367 19.4414 14.7067 0.0105736
0.286328 -0.0292969 -0.149859 0.396237 19.4417 14.7135 0.010288
0.287344 -0.0267187 -0.147055 0.396085 19.4293 14.7343 0.0105332
0.263906 -0.0261719 -0.147937 0.395708 19.4503 14.7321 0.0107057
0.267422 -0.0273438 -0.149137 0.397718 19.388 14.7543 0.0106182
0.262109 -0.0269531 -0.148168 0.396201 19.4684 14.6616 0.0103835
0.246563 -0.0265625 -0.151589 0.401294 19.4506 14.6415 0.010664
0.236484 -0.0266406 -0.145226 0.401888 19.3868 14.7241 0.0104036
0.230234 -0.0282031 -0.147654 0.412715 19.443 14.6973 0.0105584
0.215703 -0.0272656 -0.146583 0.417103 19.3548 14.7169 0.0106626
0.218125 -0.02625 -0.144978 0.419105 19.3989 14.8137 0.0105122
0.203125 -0.025625 -0.142077 0.41824 19.4308 14.7203 0.0106557
0.199063 -0.0267969 -0.140553 0.41781 19.4514 14.7643 0.0107635
0.189219 -0.0249219 -0.141594 0.420057 19.3799 14.5898 0.0108224
0.178437 -0.0252344 -0.140865 0.424808 19.4953 14.779 0.0106344
0.172891 -0.0246875 -0.139266 0.425443 19.4269 14.7767 0.0105918
0.165859 -0.025625 -0.138642 0.425549 19.351 14.8499 0.0104972
0.146016 -0.0255469 -0.13881 0.432777 19.3376 14.769 0.0104538
0.140313 -0.0245313 -0.137416 0.430106 19.2622 14.7797 0.0106
0.138984 -0.024375 -0.137846 0.432644 19.4858 14.8392 0.0105298
0.134219 -0.0223437 -0.13573 0.441822 19.4392 14.8148 0.0108204
0.124688 -0.0252344 -0.134035 0.440251 19.4211 14.7842 0.0106185
0.104766 -0.0232812 -0.132175 0.44467 19.4205 14.8269 0.0104605
0.108125 -0.0233594 -0.134844 0.444805 19.4846 14.7988 0.0106752
0.104219 -0.0216406 -0.131274 0.450221 19.3932 14.7954 0.0104781
0.0878906 -0.0239063 -0.133575 0.454037 19.4812 14.8667 0.0106523
0.0757813 -0.0241406 -0.131248 0.458586 19.4332 14.7967 0.0105163
0.0749219 -0.023125 -0.131301 0.458628 19.3527 14.8206 0.0107133
0.0555469 -0.0246094 -0.129016 0.465313 19.3902 14.9344 0.0104796
0.0603906 -0.0245313 -0.126986 0.46188 19.4302 14.8005 0.0105587
0.0510156 -0.0171875 -0.126679 0.47085 19.5791 14.9118 0.010572
0.0454688 -0.0191406 -0.123845 0.470864 19.4098 14.9147 0.01051
0.025625 -0.0210938 -0.122432 0.472383 19.4739 14.9196 0.0103882
0.0144531 -0.020625 -0.121653 0.480409 19.3374 14.8416 0.010055
0.00882813 -0.0208594 -0.119455 0.47978 19.3386 14.9848 0.0101614
-0.0015625 -0.0190625 -0.119704 0.491084 19.3584 15.0018 0.00987876
0.00242187 -0.019375 -0.112557 0.488381 19.4322 14.9204 0.009661
-0.00578125 -0.0209375 -0.109622 0.491881 19.4869 14.9919 0.00963335
-0.021875 -0.0196094 -0.102541 0.492551 19.43 14.9071 0.00901548
-0.0280469 -0.0211719 -0.0990079 0.49732 19.3626 15.0006 0.00868606
-0.0177344 -0.0228906 -0.0981287 0.489743 19.4134 15.1089 0.00827536
-0.00875 -0.0233594 -0.0984385 0.495195 19.437 14.9998 0.00785567
-0.00484375 -0.0242969 -0.0973489 0.495257 19.3623 15.0832 0.00762193
0.0114844 -0.0219531 -0.0984032 0.497017 19.3631 15.0203 0.00731594
0.0286719 -0.0228906 -0.0940193 0.485024 19.2112 15.0489 0.00739377
0.0307031 -0.0232812 -0.0958908 0.493628 19.3617 14.8571 0.0075322
0.0392969 -0.025 -0.0965612 0.491776 19.3478 14.955 0.007802
0.0442969 -0.0255469 -0.0936948 0.493254 19.3215 15.0641 0.00835829
0.05625 -0.0239063 -0.0965968 0.488119 19.3237 15.0558 0.0087813
0.05875 -0.0261719 -0.102241 0.491945 19.3276 15.0415 0.00916357
0.079375 -0.0264844 -0.104536 0.487735 19.4597 15.0345 0.00970367
0.0799219 -0.0240625 -0.106341 0.482761 19.5116 14.977 0.00995541
0.0863281 -0.0260156 -0.116904 0.482444 19.3814 14.9034 0.0101278
0.0921094 -0.0264844 -0.120803 0.489531 19.461 14.9647 0.0103376
0.102969 -0.026875 -0.125064 0.487936 19.3787 14.8756 0.0107498
0.112891 -0.0270312 -0.129329 0.480373 19.4117 14.8649 0.0107419
0.125156 -0.0260937 -0.133514 0.46767 19.4375 14.9809 0.0109452
0.123828 -0.0280469 -0.131984 0.470465 19.3681 14.8325 0.0110492
0.127188 -0.02875 -0.136028 0.464846 19.5243 14.9368 0.0110941
0.136563 -0.0298438 -0.13698 0.45897 19.5593 14.9126 0.0110908
0.144687 -0.0275781 -0.136875 0.453962 19.4794 14.8706 0.0110567
0.152656 -0.0282813 -0.139175 0.453149 19.4992 14.8716 0.0111036
0.170078 -0.0291406 -0.138115 0.454387 19.4451 14.8681 0.0109525
0.173203 -0.0289063 -0.137858 0.452172 19.4261 14.8059 0.0110471
0.187734 -0.0289844 -0.137314 0.446447 19.3802 14.8178 0.0109668
0.189375 -0.0296875 -0.141074 0.447917 19.4614 14.8437 0.0111596
0.192109 -0.030625 -0.138185 0.445917 19.5516 14.8303 0.0110889
0.205781 -0.0296094 -0.141005 0.447241 19.4288 14.8152 0.0110592
0.209766 -0.0275 -0.135683 0.44464 19.5187 14.8257 0.0111004
0.223359 -0.030625 -0.136385 0.44015 19.4172 14.8027 0.0108898
0.224297 -0.0316406 -0.135448 0.443322 19.4254 14.7645 0.0111523
0.241484 -0.0303906 -0.136731 0.440554 19.3476 14.8757 0.0110249
0.247031 -0.0304687 -0.133428 0.435851 19.4055 14.8171 0.0110861
0.259219 -0.0310937 -0.134575 0.433516 19.4502 14.8848 0.0110291
0.266484 -0.0296875 -0.132632 0.436821 19.4362 14.79 0.0108496
0.279531 -0.0322656 -0.134071 0.438623 19.4152 14.8063 0.010929
0.287187 -0.0308594 -0.133084 0.433263 19.4005 14.8434 0.0109546
0.293438 -0.0314844 -0.132963 0.440812 19.4197 14.7516 0.0108743
0.297578 -0.0328906 -0.129993 0.428315 19.361 14.758 0.0107716
0.304688 -0.0314844 -0.13222 0.434366 19.3708 14.7925 0.0108853
0.31 -0.0317969 -0.131425 0.426597 19.5365 14.8037 0.0108063
0.327891 -0.0346875 -0.131186 0.429571 19.3234 14.8294 0.0105342
0.333984 -0.0346875 -0.130675 0.427383 19.3484 14.7716 0.0105814
0.336016 -0.0339844 -0.131644 0.423665 19.3959 14.7919 0.0107286
0.355625 -0.0340625 -0.132658 0.420671 19.4285 14.8074 0.0109829
0.359531 -0.0332812 -0.131464 0.414735 19.5623 14.7562 0.0105935
0.371328 -0.034375 -0.131169 0.417314 19.464 14.8001 0.0107973
0.378984 -0.0332031 -0.129214 0.413318 19.3992 14.7568 0.01071
0.378437 -0.0334375 -0.134933 0.416862 19.4899 14.7428 0.0108808
0.383516 -0.0361719 -0.13315 0.410139 19.5241 14.7589 0.0109937
0.397344 -0.0364063 -0.133349 0.410332 19.4531 14.7369 0.0108466
0.409453 -0.0349219 -0.131605 0.398039 19.5052 14.7951 0.0107241
0.411719 -0.036875 -0.132386 0.403201 19.4986 14.7586 0.0108002
0.413438 -0.0339062 -0.13468 0.396278 19.5067 14.7121 0.0107275
0.432344 -0.0378906 -0.135251 0.391366 19.4791 14.641 0.0107444
0.445234 -0.0375781 -0.135182 0.391658 19.4372 14.6216 0.010572
0.450781 -0.0390625 -0.136458 0.390225 19.4827 14.6682 0.0108622
0.453594 -0.0380469 -0.136285 0.388735 19.3298 14.6328 0.0106406
0.459844 -0.0390625 -0.14044 0.381706 19.3927 14.6375 0.0107109
0.479141 -0.0396875 -0.141858 0.383957 19.3981 14.5701 0.0107048
0.482344 -0.038125 -0.14246 0.374478 19.3571 14.5246 0.0105094
0.492422 -0.0403906 -0.144157 0.36452 19.4001 14.6544 0.0104573
0.500938 -0.0377344 -0.143999 0.363189 19.4391 14.62 0.0105622
0.508672 -0.0413281 -0.149206 0.364659 19.3151 14.633 0.0107211
0.514062 -0.04 -0.147919 0.358879 19.37 14.5181 0.0105228
0.529844 -0.0395313 -0.150011 0.360792 19.2888 14.47 0.01062
0.530469 -0.0403906 -0.149787 0.353757 19.3621 14.5142 0.0104535
0.538594 -0.0405469 -0.153606 0.352035 19.207 14.5711 0.0105668
0.548984 -0.0415625 -0.153817 0.346535 19.2702 14.5745 0.0102606
0.562891 -0.0424219 -0.152112 0.344305 19.2572 14.5056 0.0105823
0.568125 -0.0397656 -0.158506 0.343653 19.1766 14.4042 0.010063
0.572734 -0.0422656 -0.155172 0.346536 19.2521 14.4732 0.0102856
0.572734 -0.0428906 -0.156774 0.342058 19.2099 14.4834 0.0101485
0.589922 -0.0485937 -0.157068 0.345189 19.2518 14.5206 0.0104665
0.590781 -0.0546094 -0.162809 0.342138 19.1477 14.388 0.0102916
0.614766 -0.0642969 -0.161664 0.338895 19.148 14.3731 0.0101546
0.610547 -0.0771094 -0.162194 0.338183 19.2494 14.4603 0.010284
0.628203 -0.094375 -0.161302 0.335544 19.272 14.4359 0.010128
0.63625 -0.119141 -0.160374 0.337634 19.2579 14.4677 0.0102467
0.645078 -0.151172 -0.16437 0.332517 19.182 14.3425 0.0103508
0.653984 -0.193906 -0.16291 0.333713 19.1228 14.4946 0.0102227
0.651484 -0.247734 -0.163937 0.335227 19.1683 14.4193 0.0101052
0.672422 -0.312031 -0.164645 0.331952 19.1575 14.5012 0.0101605
0.658984 -0.280938 -0.16508 0.334585 19.2708 14.4063 0.0102297
0.654141 -0.231406 -0.16734 0.336723 19.1806 14.4975 0.00996757
0.642969 -0.187031 -0.165491 0.332995 19.1908 14.4652 0.0101096
0.637266 -0.147656 -0.167441 0.329609 19.169 14.4113 0.0101068
0.632344 -0.116406 -0.168833 0.338584 19.1422 14.3176 0.0103467
0.625469 -0.0922656 -0.168901 0.338027 19.2811 14.4363 0.010113
0.608203 -0.0727344 -0.168818 0.340918 19.1967 14.504 0.0101795
0.600234 -0.0605469 -0.168931 0.335814 19.187 14.5096 0.0102202
0.591719 -0.0525781 -0.169484 0.334952 19.2244 14.4428 0.0101517
0.590938 -0.0453906 -0.16611 0.335792 19.2342 14.3931 0.0100376
0.583828 -0.0421094 -0.168174 0.331817 19.2795 14.4315 0.0101773
0.568047 -0.0389063 -0.168812 0.336605 19.2112 14.4573 0.0101436
0.559688 -0.0360156 -0.167596 0.334266 19.2449 14.3195 0.0102774
0.550391 -0.0334375 -0.167277 0.336022 19.1807 14.5219 0.010072
0.54 -0.0340625 -0.166647 0.339275 19.1497 14.5499 0.00999609
0.541719 -0.0352344 -0.166595 0.328111 19.2938 14.463 0.0102811
0.5275 -0.0319531 -0.168602 0.340628 19.2108 14.4078 0.0102194
0.517188 -0.0336719 -0.168301 0.33728 19.3956 14.4434 0.010283
0.515313 -0.0291406 -0.166932 0.339221 19.179 14.5625 0.0102145
0.508828 -0.0342187 -0.166439 0.342315 19.2712 14.5681 0.010255
0.491016 -0.0320312 -0.166846 0.344116 19.3503 14.5249 0.0103579
0.488125 -0.0299219 -0.163989 0.344401 19.2814 14.5518 0.0104725
0.479375 -0.0311719 -0.166899 0.344644 19.4043 14.5571 0.0102849
0.471484 -0.028125 -0.163198 0.347399 19.3214 14.5252 0.0102735
0.458672 -0.028125 -0.163861 0.345185 19.3158 14.4845 0.0103385
0.453203 -0.0308594 -0.163839 0.34849 19.3582 14.4749 0.0105089
0.442656 -0.0278125 -0.162162 0.35265 19.3846 14.5685 0.0104529
0.440234 -0.0279688 -0.162859 0.358586 19.3237 14.5179 0.0105901
0.418281 -0.0307031 -0.165197 0.353639 19.2564 14.5439 0.0106859
0.4175 -0.0289844 -0.165408 0.364667 19.355 14.5476 0.0106251
0.395313 -0.0285156 -0.162097 0.361701 19.3773 14.5893 0.0107512
0.398984 -0.0300781 -0.163859 0.366403 19.3956 14.5478 0.0107137
0.397031 -0.0304687 -0.161654 0.372033 19.4239 14.637 0.0106408
0.388906 -0.0289844 -0.159932 0.362529 19.3316 14.5699 0.0107481
0.37625 -0.0292188 -0.162445 0.369921 19.3954 14.7017 0.0106604
0.366563 -0.0294531 -0.160531 0.373493 19.3421 14.6772 0.0108674
0.360078 -0.0283594 -0.159668 0.373036 19.3273 14.6743 0.0109629
0.351875 -0.0303906 -0.157476 0.372159 19.3253 14.6017 0.0106294
0.343516 -0.03 -0.157587 0.376814 19.5182 14.6924 0.0106936
0.323828 -0.0286719 -0.155742 0.379841 19.3584 14.6518 0.0107573
0.327734 -0.0296875 -0.154814 0.382233 19.4435 14.6404 0.0108404
0.318906 -0.0294531 -0.153695 0.379224 19.4549 14.6256 0.0107665
0.312969 -0.0295313 -0.155689 0.382532 19.4094 14.6574 0.010614
0.311172 -0.0273438 -0.154801 0.389478 19.4192 14.7188 0.0107167
0.293359 -0.0290625 -0.153189 0.398536 19.4129 14.661 0.0108056
0.286719 -0.0282031 -0.153614 0.39076 19.4354 14.6261 0.010953
0.279531 -0.0273438 -0.152445 0.397997 19.4111 14.7888 0.0106882
0.274922 -0.0288281 -0.151303 0.401598 19.3667 14.6858 0.0108348
0.253125 -0.0285156 -0.149741 0.397732 19.4197 14.6869 0.0107318
0.250234 -0.0274219 -0.153791 0.396095 19.4331 14.6857 0.0107925
0.25125 -0.0269531 -0.152177 0.3998 19.4415 14.7366 0.0107895
0.228281 -0.0275 -0.149647 0.398566 19.5337 14.7793 0.010728
0.225625 -0.0264062 -0.153676 0.411672 19.4715 14.7424 0.0109654
0.220391 -0.0279688 -0.150039 0.408299 19.4396 14.8184 0.0108135
0.215 -0.026875 -0.152859 0.409273 19.4123 14.7188 0.0107408
0.194609 -0.0278125 -0.15082 0.411877 19.3922 14.7235 0.0110114
0.193594 -0.0261719 -0.151915 0.421576 19.3602 14.8327 0.0108412
0.18625 -0.0269531 -0.150599 0.415979 19.4133 14.8358 0.0108625
0.1725 -0.0255469 -0.15176 0.422815 19.3768 14.8336 0.0109772
0.167109 -0.0242969 -0.148079 0.418315 19.4709 14.8219 0.0109812
0.157109 -0.0254688 -0.15058 0.425497 19.3711 14.7894 0.0108854
0.156719 -0.0246094 -0.146294 0.4257 19.3801 14.7927 0.0108833
0.143828 -0.0251563 -0.14492 0.430013 19.4485 14.7593 0.0107605
0.133828 -0.0239844 -0.146712 0.425831 19.4267 14.7136 0.0107037
0.125781 -0.02375 -0.146216 0.437347 19.4234 14.7458 0.0110623
0.116484 -0.0235938 -0.146366 0.434063 19.3832 14.7858 0.0108181
0.111094 -0.0241406 -0.144813 0.43871 19.379 14.7509 0.0106812
0.106484 -0.0254688 -0.143921 0.444433 19.4096 14.7488 0.0109154
0.0927344 -0.0253125 -0.141151 0.443541 19.4071 14.8277 0.0108989
0.0890625 -0.0244531 -0.139104 0.444938 19.3837 14.8373 0.011094
0.0717187 -0.0245313 -0.140564 0.447966 19.4706 14.8161 0.0111744
0.0648438 -0.0227344 -0.142133 0.451695 19.4222 14.8494 0.0106328
0.0619531 -0.0242969 -0.140636 0.459576 19.5325 14.8052 0.0110686
0.049375 -0.0235156 -0.139169 0.45984 19.4355 14.9 0.0109801
0.0439844 -0.0232031 -0.141855 0.462811 19.4826 14.8955 0.01093
0.0371875 -0.0242969 -0.136032 0.464052 19.4595 14.9365 0.0109232
0.0253125 -0.0240625 -0.137986 0.470957 19.4534 14.8342 0.0112847
0.0188281 -0.0229687 -0.136604 0.472714 19.5019 14.849 0.0108751
0.008125 -0.0225781 -0.133201 0.476734 19.4301 14.9204 0.0111155
0.00328125 -0.0225781 -0.134023 0.483435 19.5241 14.9302 0.0111226
-0.0046875 -0.0232031 -0.134483 0.486651 19.41 14.9056 0.0110134
-0.00632813 -0.0227344 -0.135827 0.489083 19.3872 14.8978 0.0108018
-0.0313281 -0.0225 -0.134973 0.496214 19.369 14.9374 0.0109145
-0.026875 -0.0233594 -0.131521 0.496751 19.4425 14.8665 0.0107935
-0.0179688 -0.0240625 -0.131945 0.494004 19.4309 15.0004 0.0110004
-0.00960937 -0.02375 -0.13121 0.492527 19.3978 14.9966 0.0109056
-0.00351563 -0.0269531 -0.131943 0.49312 19.4591 14.9691 0.0107271
0.0103125 -0.0263281 -0.1292 0.503876 19.5126 15.0169 0.0110438
0.0125781 -0.0260937 -0.132972 0.493759 19.3355 14.8609 0.0110976
0.0253906 -0.0267969 -0.132607 0.491941 19.4528 14.9204 0.0108916
0.0419531 -0.0253906 -0.131023 0.497223 19.447 14.9207 0.0108759
0.0389063 -0.0253906 -0.13193 0.491925 19.3533 14.9777 0.0109437
0.0519531 -0.0274219 -0.128405 0.484388 19.4755 14.994 0.0108381
0.0671094 -0.0278906 -0.13097 0.487881 19.4302 14.9497 0.0107739
0.0667188 -0.0266406 -0.12826 0.488106 19.4154 14.9092 0.0109246
0.0763281 -0.0261719 -0.131143 0.482185 19.3829 14.8883 0.0108025
0.0825781 -0.0261719 -0.131838 0.482129 19.3946 14.8543 0.0106299
0.102422 -0.0269531 -0.13276 0.480638 19.3327 14.8451 0.0109401
0.0964062 -0.0284375 -0.129819 0.482597 19.4384 14.9652 0.010992
0.111172 -0.0276563 -0.131052 0.471107 19.4632 14.8704 0.0109508
0.117734 -0.0285938 -0.130821 0.479879 19.4151 14.9049 0.0111497
0.131094 -0.0269531 -0.127561 0.476998 19.553 14.9287 0.0110169
0.126562 -0.028125 -0.131504 0.472283 19.5735 14.8983 0.0110822
0.138281 -0.0280469 -0.129794 0.465974 19.4583 14.8316 0.0110969
0.152891 -0.0271875 -0.130397 0.473156 19.4419 14.9271 0.0109217
0.160938 -0.0300781 -0.130698 0.46301 19.4827 14.9693 0.0109529
0.170547 -0.03 -0.131491 0.459306 19.512 14.9094 0.0109493
0.178437 -0.0308594 -0.130256 0.460138 19.5206 14.8685 0.0110343
0.183594 -0.0307812 -0.130869 0.454016 19.4759 14.8815 0.0111258
0.18875 -0.0307031 -0.13147 0.457051 19.4547 14.8561 0.0111613
0.201016 -0.03 -0.134604 0.452599 19.4239 14.8844 0.0109943
0.212578 -0.0296875 -0.13186 0.45046 19.378 14.813 0.0111312
0.215234 -0.029375 -0.131933 0.448191 19.407 14.8622 0.0110352
0.222109 -0.0317969 -0.133741 0.451496 19.3619 14.7879 0.0108822
0.237266 -0.0321875 -0.133258 0.44588 19.4747 14.8493 0.0109934
0.243047 -0.031875 -0.134547 0.443808 19.385 14.8146 0.0110135
0.250312 -0.030625 -0.134481 0.442252 19.4606 14.7525 0.0111348
0.261328 -0.031875 -0.135146 0.437856 19.3243 14.7995 0.0110556
0.266172 -0.031875 -0.136068 0.439012 19.5021 14.8322 0.0110912
0.277188 -0.0335156 -0.138222 0.436478 19.4632 14.775 0.0109593
0.287656 -0.0316406 -0.13654 0.433277 19.5227 14.8378 0.0106761
0.289062 -0.0341406 -0.136292 0.433189 19.4545 14.7881 0.0106333
0.3 -0.0344531 -0.138277 0.428502 19.3879 14.7917 0.0106929
0.308359 -0.0328125 -0.135597 0.423872 19.4435 14.7836 0.011026
0.318359 -0.0332031 -0.136119 0.422957 19.3164 14.8411 0.010877
0.323516 -0.0349219 -0.141426 0.419548 19.4586 14.7399 0.0110012
0.334297 -0.0346094 -0.135036 0.421219 19.5288 14.649 0.0110243
0.342344 -0.0346875 -0.135199 0.411339 19.4967 14.7955 0.0108443
0.352734 -0.0347656 -0.137727 0.411313 19.5324 14.7743 0.0108439
0.363438 -0.0353125 -0.137632 0.41429 19.5107 14.6959 0.0110068
0.3675 -0.0345312 -0.138737 0.408039 19.3508 14.6951 0.0107457
0.373359 -0.0351562 -0.136061 0.40367 19.4331 14.7353 0.0109248
0.372031 -0.0315625 -0.140021 0.406576 19.3888 14.6746 0.0110351
0.371953 -0.0333594 -0.138917 0.401336 19.4284 14.6923 0.0108498
0.36875 -0.0325781 -0.138662 0.406613 19.4494 14.7618 0.0110123
0.359609 -0.0329687 -0.138663 0.407555 19.4672 14.7017 0.0109175
0.367031 -0.0329687 -0.139425 0.395817 19.3812 14.6131 0.0110635
0.366641 -0.0313281 -0.138973 0.402434 19.4756 14.7565 0.0108301
0.369453 -0.033125 -0.138152 0.407739 19.4232 14.678 0.0106239
0.365703 -0.0332812 -0.138069 0.397585 19.5324 14.6188 0.0111036
0.360859 -0.03375 -0.137448 0.401017 19.4897 14.7054 0.0109452
0.370547 -0.0319531 -0.139796 0.397314 19.4345 14.7133 0.0108522
0.368594 -0.0339844 -0.139861 0.398575 19.5155 14.7502 0.0108875
0.362656 -0.0338281 -0.140399 0.398674 19.5459 14.745 0.0109782
0.371641 -0.034375 -0.143814 0.395201 19.4576 14.7112 0.0108203
0.372109 -0.0303125 -0.140489 0.399066 19.2729 14.7026 0.0108455
0.376797 -0.0338281 -0.141277 0.399319 19.4318 14.6693 0.0107725
0.371094 -0.034375 -0.139425 0.394563 19.4144 14.7588 0.0109129
0.369922 -0.0311719 -0.139985 0.401248 19.498 14.6993 0.0109769
0.365781 -0.0326562 -0.143237 0.397538 19.4688 14.7242 0.0110895
0.371406 -0.0311719 -0.140488 0.404126 19.4259 14.7277 0.0109028
0.367969 -0.0346875 -0.142987 0.400562 19.4161 14.6324 0.0108533
0.375391 -0.0328125 -0.14087 0.400209 19.3164 14.7687 0.0109532
0.372891 -0.030625 -0.141654 0.397883 19.4554 14.7138 0.0108255
0.362187 -0.0317969 -0.144716 0.396326 19.3374 14.6224 0.0108394
0.373281 -0.0320312 -0.140443 0.393997 19.3819 14.6589 0.0110145
0.371328 -0.0325 -0.142403 0.39696 19.3885 14.7237 0.0107965
0.365156 -0.0341406 -0.139286 0.397426 19.3509 14.7449 0.0109541
0.372188 -0.0329687 -0.141021 0.394734 19.618 14.6605 0.0109062
0.367031 -0.0303125 -0.142148 0.392903 19.471 14.6807 0.0107819
0.36375 -0.0328125 -0.142105 0.394326 19.4226 14.7583 0.0108806
0.370234 -0.0313281 -0.142062 0.3929 19.4514 14.721 0.0108143
0.372656 -0.0326562 -0.145918 0.396433 19.4485 14.7316 0.0107548
0.370234 -0.0307031 -0.140821 0.39525 19.5061 14.6866 0.010638
0.365469 -0.031875 -0.143001 0.398284 19.4846 14.7046 0.0109715
0.370469 -0.0309375 -0.145373 0.394702 19.5814 14.6965 0.0110014
0.363906 -0.0328125 -0.141322 0.397992 19.3857 14.6708 0.0110494
0.363594 -0.0328125 -0.143134 0.400295 19.391 14.6036 0.0108703
0.360391 -0.0330469 -0.145402 0.399622 19.4187 14.7087 0.0110325
0.376328 -0.0328125 -0.144016 0.394991 19.4129 14.6527 0.0108874
0.368594 -0.0328125 -0.143412 0.396291 19.5235 14.7227 0.0108826
0.369531 -0.0325 -0.141837 0.39883 19.4646 14.702 0.0109103
0.365391 -0.0314844 -0.146409 0.394204 19.5175 14.6807 0.0109697
0.367812 -0.0317188 -0.14173 0.395987 19.6257 14.7859 0.0108178
0.366016 -0.0330469 -0.144337 0.392057 19.5183 14.7085 0.0109726
0.369609 -0.0317188 -0.143048 0.394059 19.4798 14.644 0.0110997
0.369688 -0.031875 -0.14428 0.392051 19.3902 14.6506 0.0108957
0.365391 -0.0325 -0.142116 0.395798 19.4468 14.7113 0.0107036
0.368125 -0.03125 -0.143142 0.394113 19.4988 14.7623 0.0109951
0.373672 -0.0320312 -0.141262 0.396769 19.4505 14.631 0.0109659
0.366719 -0.031875 -0.145155 0.395353 19.5199 14.7018 0.0106243
0.364609 -0.0325781 -0.144189 0.38797 19.4483 14.6345 0.0109612
0.367578 -0.0330469 -0.143004 0.388147 19.4332 14.6181 0.0107476
0.366016 -0.0324219 -0.139747 0.390015 19.4444 14.7555 0.0109881
0.368906 -0.0326562 -0.142656 0.390392 19.3915 14.6794 0.0107311
0.367109 -0.0324219 -0.143261 0.391964 19.4677 14.6859 0.0111135
0.371641 -0.0327344 -0.140976 0.392683 19.4908 14.641 0.0108383
0.362109 -0.0332031 -0.141924 0.39541 19.4413 14.6171 0.010816
0.369375 -0.0311719 -0.141174 0.392604 19.5032 14.7679 0.0108736
0.365156 -0.0314844 -0.142693 0.393658 19.4358 14.671 0.0109545
0.367891 -0.0313281 -0.140795 0.391625 19.3754 14.6578 0.0106875
0.364375 -0.0327344 -0.143976 0.393271 19.4294 14.621 0.0107255
0.367109 -0.03375 -0.144429 0.398181 19.3806 14.6527 0.0108423
0.372969 -0.0330469 -0.144769 0.393852 19.5151 14.6891 0.0108904
0.364687 -0.0317188 -0.143706 0.393956 19.5638 14.6098 0.0107432
0.372578 -0.0324219 -0.140628 0.395186 19.4269 14.7051 0.0108558
0.367344 -0.0335156 -0.141773 0.393048 19.3923 14.6659 0.0109742
0.371875 -0.0320312 -0.142675 0.388073 19.4657 14.6759 0.0110011
0.370156 -0.0314063 -0.142597 0.390819 19.4566 14.729 0.0107787
0.362187 -0.0339062 -0.144766 0.386109 19.3669 14.7084 0.011005
0.369297 -0.0315625 -0.143049 0.390801 19.4304 14.7611 0.0109391
0.370312 -0.0321094 -0.144517 0.390835 19.502 14.6909 0.010848
0.371328 -0.0336719 -0.142963 0.387831 19.3427 14.6679 0.0111553
0.362812 -0.0322656 -0.145405 0.393222 19.4223 14.6836 0.0109343
0.373906 -0.0325781 -0.14333 0.388501 19.4811 14.6727 0.0109049
0.364297 -0.0304687 -0.14304 0.385067 19.4281 14.7368 0.0108988
0.368672 -0.0320312 -0.143423 0.394037 19.4173 14.76 0.0108771
0.362891 -0.0314844 -0.146506 0.386977 19.3618 14.6993 0.0108606
0.375703 -0.0321094 -0.144426 0.395887 19.4627 14.75 0.0109219
0.367891 -0.0300781 -0.143287 0.387294 19.3895 14.6709 0.0110496
0.364922 -0.0326562 -0.143692 0.392815 19.5674 14.7108 0.0109944
0.366406 -0.0303906 -0.143509 0.392887 19.4009 14.6502 0.010786
0.365859 -0.0327344 -0.144271 0.391889 19.5322 14.6698 0.0108183
0.368281 -0.0322656 -0.143809 0.389526 19.322 14.6572 0.011102
0.365078 -0.0327344 -0.14494 0.393118 19.5673 14.6626 0.0106761
0.368516 -0.03375 -0.147068 0.394954 19.4741 14.6928 0.0108266
0.369609 -0.0325781 -0.144235 0.386728 19.3818 14.6182 0.0111276
0.366719 -0.0308594 -0.145092 0.388198 19.4249 14.6423 0.0108975
0.363047 -0.0325781 -0.144612 0.387082 19.5512 14.7561 0.0109981
0.372266 -0.0329687 -0.14437 0.392032 19.5212 14.7612 0.0107916
0.374219 -0.0330469 -0.143477 0.390737 19.4509 14.7152 0.0109632
0.362891 -0.03 -0.144533 0.386546 19.4173 14.7209 0.0109132
0.364141 -0.030625 -0.144738 0.390297 19.4117 14.6778 0.0108852
0.365859 -0.0323437 -0.14273 0.390107 19.526 14.7204 0.0109657
0.367031 -0.0314844 -0.143628 0.396868 19.4201 14.6798 0.010953
0.372031 -0.0330469 -0.145974 0.387415 19.5124 14.6677 0.0110588
0.364219 -0.033125 -0.145005 0.39465 19.3581 14.7197 0.0108448
0.359453 -0.030625 -0.145213 0.396114 19.4346 14.6589 0.0106724